index,timestamp_ns,accel_x,accel_y,accel_z,gyro_x,gyro_y,gyro_z
0,148418461825,0.7649474740028381,-9.622296333312988,0.5147533416748047,-0.004791259765625,0.012776692397892475,0.0013309054775163531
1,148419722737,0.7769184708595276,-9.634267807006836,0.5781997442245483,-0.005855984054505825,0.0157046839594841,-0.0053236219100654125
2,148420983650,0.8224083185195923,-9.649829864501953,0.5602431893348694,0.0010647244052961469,0.012776692397892475,-0.0077192517928779125
3,148422244525,0.7852981686592102,-9.647436141967773,0.5267243981361389,-0.0042588976211845875,0.0119781494140625,-0.0029279920272529125
4,148423505412,0.7960720658302307,-9.673771858215332,0.6105214357376099,-0.0077192517928779125,0.01836649514734745,-0.0026618109550327063
5,148424766325,0.7924807667732239,-9.682151794433594,0.545877993106842,-0.0053236219100654125,0.01756795309484005,-0.0031941730994731188
6,148426027212,0.8008604645729065,-9.674968719482422,0.5003881454467773,-0.0007985432748682797,0.012776692397892475,-0.0010647244052961469
7,148427288112,0.8020575642585754,-9.637859344482422,0.5039794445037842,-0.0013309054775163531,0.010913425125181675,-0.003460354171693325
8,148428549000,0.8080430626869202,-9.654618263244629,0.4884171485900879,-0.007985432632267475,0.014373779296875,-0.0002661811013240367
9,148429809925,0.849941611289978,-9.651026725769043,0.5351040959358215,-0.005589802749454975,0.012510511092841625,0.0018632676219567657
10,148431070800,0.8307880163192749,-9.682151794433594,0.5135562419891357,-0.0039927163161337376,0.014373779296875,0.0002661811013240367
11,148432331687,0.828393816947937,-9.657012939453125,0.5817910432815552,-0.004791259765625,0.010647243820130825,0.0018632676219567657
12,148433592587,0.8319851160049438,-9.658209800720215,0.5231330990791321,-0.008251613937318325,0.01224433071911335,0.0005323622026480734
13,148434853500,0.8319851160049438,-9.657012939453125,0.5578489899635315,-0.00931633822619915,0.010381062515079975,0.0018632676219567657
14,148436114400,0.8343793153762817,-9.653421401977539,0.5758054852485657,-0.007985432632267475,0.0071868896484375,0.0026618109550327063
15,148437375287,0.8595184087753296,-9.697713851928711,0.5817910432815552,-0.008783976547420025,0.01650322787463665,0.0029279920272529125
16,148438636175,0.8271967172622681,-9.668983459472656,0.5099649429321289,-0.00984870083630085,0.014373779296875,0.0071868896484375
17,148439897062,0.8451532125473022,-9.624691009521484,0.5530605912208557,-0.0114457868039608,0.014373779296875,0.005855984054505825
18,148441157975,0.8463503122329712,-9.621099472045898,0.5542576909065247,-0.0066545275039970875,0.01117960549890995,0.0023956298828125
19,148442418887,0.811634361743927,-9.654618263244629,0.524330198764801,-0.00931633822619915,0.0071868896484375,0.0090501569211483
20,148443679775,0.8738836050033569,-9.66419506072998,0.4991910457611084,-0.00931633822619915,0.0053236219100654125,0.010913425125181675
21,148444940662,0.8415619134902954,-9.617507934570312,0.5446808934211731,-0.008251613937318325,0.0042588976211845875,0.008783976547420025
22,148446201562,0.8439561128616333,-9.651026725769043,0.5351040959358215,-0.007453070487827063,0.00958251953125,0.008783976547420025
23,148447462462,0.8367735147476196,-9.647436141967773,0.49799394607543945,-0.0042588976211845875,0.008517795242369175,0.007453070487827063
24,148448723350,0.8439561128616333,-9.672574996948242,0.5638344883918762,-0.0066545275039970875,0.0037265352439135313,0.0010647244052961469
25,148449984262,0.8463503122329712,-9.635464668273926,0.5207388997077942,-0.0077192517928779125,0.00692070834338665,0.0077192517928779125
26,148451245150,0.8738836050033569,-9.668983459472656,0.5231330990791321,-0.01224433071911335,0.0053236219100654125,0.0071868896484375
27,148452506037,0.8379706144332886,-9.653421401977539,0.5291185975074768,-0.01171196810901165,0.0023956298828125,0.0018632676219567657
28,148453766950,0.8559271097183228,-9.615114212036133,0.49799394607543945,-0.007985432632267475,0.0026618109550327063,0.005057440605014563
29,148455027837,0.8643068075180054,-9.627084732055664,0.5267243981361389,-0.00984870083630085,0.008517795242369175,0.0037265352439135313
30,148456288762,0.8487445116043091,-9.645041465759277,0.5291185975074768,-0.0077192517928779125,0.0077192517928779125,0.007985432632267475
31,148457549637,0.8523358106613159,-9.657012939453125,0.5123591423034668,-0.0090501569211483,0.0023956298828125,0.0077192517928779125
32,148458810525,0.9085995554924011,-9.619902610778809,0.5063736438751221,-0.01224433071911335,0.0042588976211845875,0.004791259765625
33,148460071425,0.8583213090896606,-9.625887870788574,0.5027823448181152,-0.01171196810901165,0.0042588976211845875,0.0037265352439135313
34,148461332325,0.8224083185195923,-9.616311073303223,0.5374982953071594,-0.0077192517928779125,0.0015970865497365594,0.0026618109550327063
35,148462593225,0.828393816947937,-9.642647743225098,0.5135562419891357,-0.01597086526453495,-0.0007985432748682797,0.0010647244052961469
36,148463854112,0.8427590131759644,-9.621099472045898,0.5351040959358215,-0.01357523538172245,-0.0029279920272529125,0.0039927163161337376
37,148465115012,0.8846575617790222,-9.692925453186035,0.5039794445037842,-0.006122165359556675,-0.0053236219100654125,-0.0015970865497365594
38,148466375900,0.851138710975647,-9.62828254699707,0.48722004890441895,-0.0029279920272529125,-0.00958251953125,-0.0002661811013240367
39,148467636812,0.8188169598579407,-9.635464668273926,0.50876784324646,-0.005855984054505825,-0.0039927163161337376,0.0026618109550327063
40,148468897700,0.8188169598579407,-9.636661529541016,0.49320554733276367,-0.0063883461989462376,-0.005057440605014563,0.005855984054505825
41,148470158600,0.8355764150619507,-9.646238327026367,0.46567222476005554,-0.00984870083630085,-0.00692070834338665,0.00452507846057415
42,148471419512,0.8271967172622681,-9.63067626953125,0.5039794445037842,-0.01117960549890995,-0.005057440605014563,0.0023956298828125
43,148472680400,0.828393816947937,-9.636661529541016,0.524330198764801,-0.01224433071911335,-0.004791259765625,0.0029279920272529125
44,148473941300,0.8104372620582581,-9.582792282104492,0.5111620426177979,-0.008251613937318325,-0.0077192517928779125,0.0013309054775163531
45,148475202175,0.811634361743927,-9.633070945739746,0.5015852451324463,-0.00931633822619915,-0.007985432632267475,-0.0021294488105922937
46,148476463087,0.8391677141189575,-9.634267807006836,0.5003881454467773,-0.010913425125181675,-0.008251613937318325,-0.0031941730994731188
47,148477723975,0.8092401623725891,-9.621099472045898,0.5171476006507874,-0.00931633822619915,-0.00958251953125,0.0013309054775163531
48,148478984862,0.8331822156906128,-9.641449928283691,0.48602294921875,-0.008783976547420025,-0.007453070487827063,0.0039927163161337376
49,148480245762,0.888248860836029,-9.612719535827637,0.4920084476470947,-0.008783976547420025,-0.0114457868039608,-0.0013309054775163531
50,148481506662,0.8068459630012512,-9.59835433959961,0.46806642413139343,-0.00692070834338665,-0.01410759799182415,-0.0007985432748682797
51,148482767562,0.7817068696022034,-9.615114212036133,0.5219359993934631,-0.007453070487827063,-0.01357523538172245,0.0026618109550327063
52,148484028475,0.8259996175765991,-9.604340553283691,0.4836287498474121,-0.010381062515079975,-0.010647243820130825,0.0031941730994731188
53,148485289350,0.8092401623725891,-9.582792282104492,0.5015852451324463,-0.00931633822619915,-0.01224433071911335,0.0007985432748682797
54,148486550250,0.8427590131759644,-9.585186958312988,0.49559974670410156,-0.008517795242369175,-0.0162370465695858,0.0031941730994731188
55,148487811150,0.8068459630012512,-9.615114212036133,0.5003881454467773,-0.00958251953125,-0.015438503585755825,-0.0007985432748682797
56,148489072050,0.8056488633155823,-9.617507934570312,0.4537012279033661,-0.00692070834338665,-0.015438503585755825,0.0007985432748682797
57,148490332937,0.8164227604866028,-9.603142738342285,0.48482584953308105,-0.012510511092841625,-0.01463996060192585,0.0053236219100654125
58,148491593837,0.8427590131759644,-9.59476375579834,0.44532153010368347,-0.0119781494140625,-0.01224433071911335,-0.0013309054775163531
59,148492854725,0.8056488633155823,-9.593565940856934,0.4668693244457245,-0.010913425125181675,-0.014906140975654125,-0.0037265352439135313
60,148494115625,0.8140285611152649,-9.601945877075195,0.46806642413139343,-0.012510511092841625,-0.0162370465695858,-0.0077192517928779125
61,148495376525,0.8092401623725891,-9.59476375579834,0.5279214978218079,-0.0119781494140625,-0.0191650390625,-0.005057440605014563
62,148496637425,0.8068459630012512,-9.581595420837402,0.5015852451324463,-0.0031941730994731188,-0.01836649514734745,0.0013309054775163531
63,148497898312,0.790086567401886,-9.59715747833252,0.46567222476005554,-0.0114457868039608,-0.0181003138422966,-0.0002661811013240367
64,148499159212,0.8020575642585754,-9.601945877075195,0.4920084476470947,-0.013042873702943325,-0.015438503585755825,0.0002661811013240367
65,148500420112,0.7876923680305481,-9.645041465759277,0.4944026470184326,-0.0071868896484375,-0.01783413253724575,0.0010647244052961469
66,148501681000,0.8403648138046265,-9.640253067016602,0.48243165016174316,-0.007453070487827063,-0.0173017717897892,-0.0010647244052961469
67,148502941912,0.8140285611152649,-9.639056205749512,0.5159504413604736,-0.00958251953125,-0.014373779296875,0.0007985432748682797
68,148504202800,0.7721300721168518,-9.642647743225098,0.4967968463897705,-0.008251613937318325,-0.0114457868039608,-0.0053236219100654125
69,148505463712,0.8044517636299133,-9.634267807006836,0.4920084476470947,-0.008251613937318325,-0.01463996060192585,-0.005057440605014563
70,148506724600,0.750582218170166,-9.647436141967773,0.456095427274704,-0.01224433071911335,-0.01889885775744915,-0.0029279920272529125
71,148507985475,0.7829039692878723,-9.619902610778809,0.5279214978218079,-0.00958251953125,-0.01783413253724575,0.0007985432748682797
72,148509246375,0.7924807667732239,-9.646238327026367,0.50876784324646,-0.008251613937318325,-0.01357523538172245,-0.0002661811013240367
73,148510507300,0.8032546639442444,-9.666589736938477,0.48243165016174316,-0.006122165359556675,-0.01410759799182415,-0.0010647244052961469
74,148511768175,0.7613561749458313,-9.65222454071045,0.4908113479614258,-0.0026618109550327063,-0.01410759799182415,-0.0007985432748682797
75,148513029087,0.7948749661445618,-9.684545516967773,0.50876784324646,-0.00958251953125,-0.013309055007994175,-0.0013309054775163531
76,148514289987,0.788889467716217,-9.65222454071045,0.5566518902778625,-0.010114881210029125,-0.01171196810901165,-0.0015970865497365594
77,148515550862,0.811634361743927,-9.695320129394531,0.5111620426177979,-0.0066545275039970875,-0.01996358297765255,-0.0015970865497365594
78,148516811762,0.8044517636299133,-9.678560256958008,0.5506663918495178,-0.008517795242369175,-0.0215606689453125,0.0002661811013240367
79,148518072662,0.7864952683448792,-9.666589736938477,0.5171476006507874,-0.00931633822619915,-0.01889885775744915,0.0026618109550327063
80,148519333562,0.7841010689735413,-9.674968719482422,0.5279214978218079,-0.007453070487827063,-0.01463996060192585,-0.0010647244052961469
81,148520594450,0.7841010689735413,-9.619902610778809,0.5279214978218079,-0.005057440605014563,-0.010647243820130825,0.0021294488105922937
82,148521855362,0.7709329724311829,-9.604340553283691,0.5817910432815552,-0.00958251953125,-0.012776692397892475,0.0018632676219567657
83,148523116250,0.7960720658302307,-9.612719535827637,0.48961424827575684,-0.00984870083630085,-0.01117960549890995,0.0010647244052961469
84,148524377137,0.7924807667732239,-9.605537414550781,0.5063736438751221,-0.007453070487827063,-0.01703559048473835,0.0066545275039970875
85,148525638050,0.7841010689735413,-9.623494148254395,0.4944026470184326,-0.01117960549890995,-0.014906140975654125,0.006122165359556675
86,148526898925,0.8008604645729065,-9.637859344482422,0.48961424827575684,-0.010913425125181675,-0.01357523538172245,0.0066545275039970875
87,148528159825,0.8092401623725891,-9.59835433959961,0.47884035110473633,-0.007453070487827063,-0.01224433071911335,0.006122165359556675
88,148529420737,0.7936778664588928,-9.570821762084961,0.43694180250167847,-0.008517795242369175,-0.01783413253724575,0.008251613937318325
89,148530681650,0.767341673374176,-9.621099472045898,0.47165775299072266,-0.01117960549890995,-0.01943122036755085,0.007453070487827063
90,148531942525,0.7852981686592102,-9.66299819946289,0.4668693244457245,-0.008783976547420025,-0.01756795309484005,0.007985432632267475
91,148533203412,0.8152256608009338,-9.653421401977539,0.48243165016174316,-0.00692070834338665,-0.01171196810901165,0.005855984054505825
92,148534464312,0.7553706169128418,-9.643844604492188,0.456095427274704,-0.006122165359556675,-0.01357523538172245,0.010381062515079975
93,148535725212,0.7817068696022034,-9.641449928283691,0.45848962664604187,-0.0071868896484375,-0.01224433071911335,0.0119781494140625
94,148536986125,0.811634361743927,-9.659406661987305,0.44532153010368347,-0.006122165359556675,-0.014373779296875,0.010114881210029125
95,148538247012,0.7577648162841797,-9.651026725769043,0.4620809257030487,-0.0071868896484375,-0.0162370465695858,0.007453070487827063
96,148539507912,0.7637503743171692,-9.651026725769043,0.4644751250743866,-0.0066545275039970875,-0.0181003138422966,0.0077192517928779125
97,148540768800,0.7876923680305481,-9.676166534423828,0.4908113479614258,-0.007453070487827063,-0.01836649514734745,0.0066545275039970875
98,148542029712,0.7613561749458313,-9.683348655700684,0.4812345504760742,-0.005589802749454975,-0.01996358297765255,0.010647243820130825
99,148543290587,0.7493851184844971,-9.649829864501953,0.4465186297893524,-0.0042588976211845875,-0.0157046839594841,0.015172322280704975
100,148544551487,0.7745242714881897,-9.690531730651855,0.4704606235027313,-0.0090501569211483,-0.0167694091796875,0.01357523538172245
101,148545812387,0.7577648162841797,-9.724050521850586,0.5063736438751221,-0.0063883461989462376,-0.02076212503015995,0.00984870083630085
102,148547073262,0.7577648162841797,-9.706093788146973,0.5111620426177979,-0.0066545275039970875,-0.01889885775744915,0.010913425125181675
103,148548334187,0.8092401623725891,-9.706093788146973,0.45848962664604187,-0.005057440605014563,-0.02129448764026165,0.0114457868039608
104,148549595075,0.7948749661445618,-9.655815124511719,0.5003881454467773,-0.010647243820130825,-0.01703559048473835,0.0077192517928779125
105,148550855962,0.7577648162841797,-9.68933391571045,0.44771572947502136,-0.008517795242369175,-0.0220930315554142,0.010913425125181675
106,148552116887,0.8236054182052612,-9.714473724365234,0.42018240690231323,-0.0066545275039970875,-0.0173017717897892,0.01224433071911335
107,148553377762,0.8355764150619507,-9.682151794433594,0.45250412821769714,-0.0042588976211845875,-0.01703559048473835,0.013042873702943325
108,148554638662,0.8427590131759644,-9.694122314453125,0.4944026470184326,-0.0066545275039970875,-0.01943122036755085,0.0114457868039608
109,148555899562,0.8044517636299133,-9.677363395690918,0.48961424827575684,-0.0090501569211483,-0.02129448764026165,0.01703559048473835
110,148557160462,0.8487445116043091,-9.65222454071045,0.50876784324646,-0.008783976547420025,-0.01783413253724575,0.0167694091796875
111,148558421362,0.8355764150619507,-9.655815124511719,0.4668693244457245,-0.0090501569211483,-0.0167694091796875,0.010913425125181675
112,148559682250,0.8224083185195923,-9.676166534423828,0.4596867263317108,-0.0066545275039970875,-0.01756795309484005,0.01410759799182415
113,148560943162,0.790086567401886,-9.674968719482422,0.4572925269603729,-0.008783976547420025,-0.0157046839594841,0.01171196810901165
114,148562204037,0.8523358106613159,-9.68694019317627,0.4920084476470947,-0.00692070834338665,-0.0181003138422966,0.012510511092841625
115,148563464925,0.8331822156906128,-9.635464668273926,0.5003881454467773,-0.00452507846057415,-0.0220930315554142,0.01224433071911335
116,148564725825,0.7972691655158997,-9.633070945739746,0.46806642413139343,-0.008251613937318325,-0.02502102218568325,0.00958251953125
117,148565986725,0.8176198601722717,-9.623494148254395,0.4836287498474121,-0.010647243820130825,-0.0244886614382267,0.0066545275039970875
118,148567247625,0.7733271718025208,-9.633070945739746,0.4441244304180145,-0.005057440605014563,-0.0215606689453125,0.005589802749454975
119,148568508525,0.7805097699165344,-9.636661529541016,0.46327802538871765,-0.0042588976211845875,-0.0228915736079216,0.0013309054775163531
120,148569769425,0.7841010689735413,-9.62947940826416,0.48243165016174316,-0.005057440605014563,-0.023956298828125,0.0042588976211845875
121,148571030300,0.790086567401886,-9.585186958312988,0.4776432514190674,-0.010913425125181675,-0.0204959437251091,0.0005323622026480734
122,148572291225,0.7841010689735413,-9.576807022094727,0.5003881454467773,-0.010381062515079975,-0.0191650390625,0.0023956298828125
123,148573552125,0.7637503743171692,-9.607931137084961,0.48243165016174316,-0.0063883461989462376,-0.015438503585755825,-0.0013309054775163531
124,148574813000,0.7410054206848145,-9.576807022094727,0.4728548526763916,-0.00692070834338665,-0.02129448764026165,-0.0018632676219567657
125,148576073900,0.7852981686592102,-9.581595420837402,0.49559974670410156,-0.007985432632267475,-0.0223592109978199,-0.0039927163161337376
126,148577334812,0.7625532746315002,-9.581595420837402,0.42856210470199585,-0.0090501569211483,-0.01597086526453495,-0.0031941730994731188
127,148578595687,0.7745242714881897,-9.569623947143555,0.4596867263317108,-0.0042588976211845875,-0.01650322787463665,-0.0063883461989462376
128,148579856600,0.7541735172271729,-9.56124496459961,0.4345476031303406,-0.0013309054775163531,-0.02262539230287075,-0.00931633822619915
129,148581117500,0.7565677165985107,-9.5624418258667,0.4225766062736511,-0.0063883461989462376,-0.0173017717897892,-0.01463996060192585
130,148582378387,0.7445967197418213,-9.583989143371582,0.456095427274704,-0.0023956298828125,-0.0191650390625,-0.01756795309484005
131,148583639275,0.7481880187988281,-9.556456565856934,0.47165775299072266,-0.0026618109550327063,-0.0210283063352108,-0.01597086526453495
132,148584900175,0.7362170219421387,-9.549273490905762,0.4572925269603729,-0.0031941730994731188,-0.0191650390625,-0.013309055007994175
133,148586161087,0.7601590752601624,-9.59596061706543,0.44173023104667664,0.0,-0.014906140975654125,-0.0138414166867733
134,148587421975,0.7649474740028381,-9.57201862335205,0.4800374507904053,0.0010647244052961469,-0.013309055007994175,-0.01756795309484005
135,148588682875,0.767341673374176,-9.581595420837402,0.4692635238170624,0.0005323622026480734,-0.0186326764523983,-0.0138414166867733
136,148589943787,0.7864952683448792,-9.549273490905762,0.4704606235027313,0.0010647244052961469,-0.014906140975654125,-0.0138414166867733
137,148591204650,0.7793126702308655,-9.533711433410645,0.4728548526763916,0.0039927163161337376,-0.02129448764026165,-0.0167694091796875
138,148592465562,0.7625532746315002,-9.53969669342041,0.4692635238170624,0.0042588976211845875,-0.0181003138422966,-0.010647243820130825
139,148593726462,0.7745242714881897,-9.516951560974121,0.5195418000221252,0.0037265352439135313,-0.015172322280704975,-0.01410759799182415
140,148594987350,0.7841010689735413,-9.501389503479004,0.48961424827575684,0.0023956298828125,-0.01783413253724575,-0.015438503585755825
141,148596248262,0.7936778664588928,-9.50737476348877,0.44771572947502136,0.00452507846057415,-0.014906140975654125,-0.0114457868039608
142,148597509162,0.8044517636299133,-9.481039047241211,0.4836287498474121,0.007453070487827063,-0.010647243820130825,-0.013042873702943325
143,148598770037,0.7781155705451965,-9.476250648498535,0.4800374507904053,0.01117960549890995,-0.012510511092841625,-0.010913425125181675
144,148600030925,0.8008604645729065,-9.500192642211914,0.5171476006507874,0.007985432632267475,-0.01597086526453495,-0.01171196810901165
145,148601291837,0.8355764150619507,-9.463082313537598,0.4836287498474121,0.00931633822619915,-0.01650322787463665,-0.0077192517928779125
146,148602552725,0.8032546639442444,-9.461885452270508,0.4644751250743866,0.00958251953125,-0.00931633822619915,-0.0119781494140625
147,148603813625,0.7984662652015686,-9.48462963104248,0.45250412821769714,0.013309055007994175,-0.013042873702943325,-0.00958251953125
148,148605074525,0.8152256608009338,-9.422380447387695,0.4357447028160095,0.012776692397892475,-0.01357523538172245,-0.007453070487827063
149,148606335412,0.8092401623725891,-9.440337181091309,0.4357447028160095,0.015172322280704975,-0.01597086526453495,-0.007453070487827063
150,148607596325,0.8343793153762817,-9.47265911102295,0.4596867263317108,0.0186326764523983,-0.015172322280704975,-0.00452507846057415
151,148608857225,0.812831461429596,-9.470264434814453,0.4692635238170624,0.01836649514734745,-0.0162370465695858,-0.0053236219100654125
152,148610118100,0.7972691655158997,-9.428366661071777,0.45489832758903503,0.0162370465695858,-0.015438503585755825,-0.0119781494140625
153,148611379000,0.8367735147476196,-9.41519832611084,0.4225766062736511,0.0173017717897892,-0.02076212503015995,-0.0071868896484375
154,148612639900,0.8140285611152649,-9.459490776062012,0.45489832758903503,0.0215606689453125,-0.015438503585755825,-0.007985432632267475
155,148613900800,0.8559271097183228,-9.424775123596191,0.5219359993934631,0.023956298828125,-0.015172322280704975,-0.0114457868039608
156,148615161700,0.8690952062606812,-9.463082313537598,0.41299980878829956,0.02741665206849575,-0.013042873702943325,-0.00984870083630085
157,148616422587,0.790086567401886,-9.442731857299805,0.36750996112823486,0.02848137728869915,-0.0119781494140625,-0.0066545275039970875
158,148617683475,0.8104372620582581,-9.4822359085083,0.41299980878829956,0.0311431884765625,-0.01756795309484005,-0.005855984054505825
159,148618944375,0.8379706144332886,-9.558850288391113,0.4644751250743866,0.02794901467859745,-0.01756795309484005,-0.010381062515079975
160,148620205275,0.812831461429596,-9.542091369628906,0.39863458275794983,0.0292799212038517,-0.0210283063352108,-0.010647243820130825
161,148621466162,0.7996633648872375,-9.543288230895996,0.37828385829925537,0.0351359061896801,-0.023956298828125,-0.01171196810901165
162,148622727050,0.8008604645729065,-9.57201862335205,0.424970805644989,0.0340711809694767,-0.0196974016726017,-0.010114881210029125
163,148623987950,0.7733271718025208,-9.625887870788574,0.4082113802433014,0.0399271659553051,-0.02129448764026165,-0.0138414166867733
164,148625248862,0.7745242714881897,-9.62947940826416,0.4381389021873474,0.0420566126704216,-0.02182685025036335,-0.01463996060192585
165,148626509762,0.8056488633155823,-9.639056205749512,0.4010287821292877,0.0330064557492733,-0.0220930315554142,-0.013309055007994175
166,148627770662,0.7745242714881897,-9.640253067016602,0.38307228684425354,0.0375315360724926,-0.01597086526453495,-0.01463996060192585
167,148629031562,0.8032546639442444,-9.635464668273926,0.4596867263317108,0.0412580706179142,-0.02022976242005825,-0.01410759799182415
168,148630292450,0.7541735172271729,-9.645041465759277,0.4141969084739685,0.042855154722929,-0.0247548408806324,-0.01224433071911335
169,148631553362,0.8176198601722717,-9.690531730651855,0.38067808747291565,0.0338049978017807,-0.0204959437251091,-0.012510511092841625
170,148632814225,0.8451532125473022,-9.676166534423828,0.4537012279033661,0.0359344482421875,-0.0186326764523983,-0.0162370465695858
171,148634075150,0.8032546639442444,-9.682151794433594,0.42616790533065796,0.0346035435795784,-0.02182685025036335,-0.014906140975654125
172,148635336025,0.8068459630012512,-9.684545516967773,0.42018240690231323,0.0372653529047966,-0.02262539230287075,-0.01357523538172245
173,148636596937,0.8307880163192749,-9.66419506072998,0.38067808747291565,0.0372653529047966,-0.0204959437251091,-0.0114457868039608
174,148637857837,0.7972691655158997,-9.66419506072998,0.46327802538871765,0.0388624407351017,-0.02608574740588665,-0.00692070834338665
175,148639118737,0.8224083185195923,-9.676166534423828,0.40462008118629456,0.0385962575674057,-0.02608574740588665,-0.0157046839594841
176,148640379637,0.7996633648872375,-9.670180320739746,0.4381389021873474,0.0391286201775074,-0.023956298828125,-0.01703559048473835
177,148641640525,0.812831461429596,-9.66539192199707,0.42856210470199585,0.038330078125,-0.0220930315554142,-0.013042873702943325
178,148642901412,0.8152256608009338,-9.634267807006836,0.4213795065879822,0.0354020856320858,-0.0244886614382267,-0.010114881210029125
179,148644162325,0.8056488633155823,-9.640253067016602,0.42377370595932007,0.0367329902946949,-0.02741665206849575,-0.0090501569211483
180,148645423212,0.849941611289978,-9.605537414550781,0.38546648621559143,0.0399271659553051,-0.0247548408806324,-0.012510511092841625
181,148646684100,0.8834604620933533,-9.588777542114258,0.4381389021873474,0.0415242500603199,-0.03087700717151165,-0.01171196810901165
182,148647945000,0.8631097078323364,-9.533711433410645,0.38905778527259827,0.0455169677734375,-0.0322079136967659,-0.0071868896484375
183,148649205900,0.9205705523490906,-9.543288230895996,0.40701428055763245,0.0401933453977108,-0.0295461006462574,-0.012510511092841625
184,148650466800,0.9157821536064148,-9.526528358459473,0.3411737382411957,0.0372653529047966,-0.02315775491297245,-0.0119781494140625
185,148651727687,0.8918401598930359,-9.457097053527832,0.40940847992897034,0.0356682650744915,-0.0263519287109375,-0.008783976547420025
186,148652988587,0.8259996175765991,-9.500192642211914,0.35434186458587646,0.0340711809694767,-0.02874755859375,-0.0039927163161337376
187,148654249487,0.849941611289978,-9.498995780944824,0.30047231912612915,0.0452507846057415,-0.0292799212038517,-0.0114457868039608
188,148655510387,0.8738836050033569,-9.466673851013184,0.36990416049957275,0.0481787770986557,-0.0314093679189682,-0.013042873702943325
189,148656771287,0.9169792532920837,-9.489418983459473,0.3711012601852417,0.0415242500603199,-0.03034464456140995,-0.010381062515079975
190,148658032187,0.8271967172622681,-9.508572578430176,0.3579331636428833,0.0489773228764534,-0.03034464456140995,-0.008251613937318325
191,148659293075,0.8104372620582581,-9.41519832611084,0.33758243918418884,0.0513729527592659,-0.0356682650744915,-0.015172322280704975
192,148660553962,0.8475474119186401,-9.44752025604248,0.3100491166114807,0.0492435023188591,-0.0391286201775074,-0.01117960549890995
193,148661814875,0.8559271097183228,-9.441534042358398,0.32441434264183044,0.0535023994743824,-0.0330064557492733,-0.010381062515079975
194,148663075737,0.851138710975647,-9.454702377319336,0.3124433159828186,0.052703857421875,-0.0338049978017807,-0.01889885775744915
195,148664336650,0.8379706144332886,-9.391256332397461,0.31124621629714966,0.0513729527592659,-0.0359344482421875,-0.0228915736079216
196,148665597550,0.8379706144332886,-9.421183586120605,0.3232172429561615,0.0564303919672966,-0.0388624407351017,-0.01783413253724575
197,148666858450,0.8188169598579407,-9.434351921081543,0.3411737382411957,0.0585598424077034,-0.0404595248401165,-0.01943122036755085
198,148668119337,0.812831461429596,-9.396044731140137,0.32202014327049255,0.0588260218501091,-0.0420566126704216,-0.0223592109978199
199,148669380250,0.8164227604866028,-9.435548782348633,0.3387795388698578,0.0598907470703125,-0.0412580706179142,-0.0186326764523983
200,148670641137,0.8020575642585754,-9.427168846130371,0.37469255924224854,0.0601569265127182,-0.0409918874502182,-0.01836649514734745
201,148671902037,0.8331822156906128,-9.408015251159668,0.3663128614425659,0.0633511021733284,-0.0409918874502182,-0.014373779296875
202,148673162937,0.7984662652015686,-9.41519832611084,0.29209262132644653,0.0636172816157341,-0.042855154722929,-0.013309055007994175
203,148674423825,0.788889467716217,-9.41519832611084,0.3100491166114807,0.0641496405005455,-0.0412580706179142,-0.02076212503015995
204,148675684725,0.7924807667732239,-9.445125579833984,0.31124621629714966,0.0678761824965477,-0.043121337890625,-0.01996358297765255
205,148676945625,0.7852981686592102,-9.436745643615723,0.32680854201316833,0.0702718123793602,-0.0460493303835392,-0.01410759799182415
206,148678206512,0.7781155705451965,-9.453505516052246,0.2777273952960968,0.0684085413813591,-0.0439198799431324,-0.015438503585755825
207,148679467412,0.7852981686592102,-9.459490776062012,0.23702597618103027,0.0689409002661705,-0.0460493303835392,-0.014373779296875
208,148680728300,0.7589619159698486,-9.445125579833984,0.2537853717803955,0.0708041712641716,-0.0463155098259449,-0.013309055007994175
209,148681989212,0.7469909191131592,-9.50737476348877,0.24420857429504395,0.0721350759267807,-0.0481787770986557,-0.012776692397892475
210,148683250100,0.7493851184844971,-9.502586364746094,0.27653029561042786,0.0686747208237648,-0.0455169677734375,-0.01117960549890995
211,148684511000,0.7589619159698486,-9.485827445983887,0.24660277366638184,0.0739983469247818,-0.0471140518784523,-0.0114457868039608
212,148685771900,0.8200140595436096,-9.519346237182617,0.23822307586669922,0.0771925151348114,-0.0471140518784523,-0.00984870083630085
213,148687032800,0.767341673374176,-9.524134635925293,0.2669534981250763,0.0763939768075943,-0.0497758649289608,-0.008783976547420025
214,148688293675,0.7481880187988281,-9.548076629638672,0.22026655077934265,0.0755954310297966,-0.0484449602663517,-0.010114881210029125
215,148689554587,0.7134721279144287,-9.5408935546875,0.17956513166427612,0.0745307058095932,-0.0497758649289608,-0.005589802749454975
216,148690815487,0.7122750282287598,-9.605537414550781,0.181959331035614,0.0745307058095932,-0.0505744069814682,-0.008251613937318325
217,148692076387,0.7182605266571045,-9.625887870788574,0.20350714027881622,0.0793219655752182,-0.0489773228764534,-0.0010647244052961469
218,148693337262,0.7218518257141113,-9.613917350769043,0.19393034279346466,0.0790557861328125,-0.0484449602663517,-0.0021294488105922937
219,148694598175,0.6727706789970398,-9.639056205749512,0.23702597618103027,0.0771925151348114,-0.0508405901491642,-0.008517795242369175
220,148695859075,0.6572083830833435,-9.660603523254395,0.19632454216480255,0.0737321600317955,-0.0532362200319767,-0.0053236219100654125
221,148697119975,0.6320692300796509,-9.673771858215332,0.17717093229293823,0.0763939768075943,-0.052437674254179,-0.0015970865497365594
222,148698380887,0.6416460871696472,-9.694122314453125,0.1867477297782898,0.0750630721449852,-0.0556318499147892,-0.0021294488105922937
223,148699641762,0.6117185354232788,-9.710882186889648,0.17717093229293823,0.0755954310297966,-0.0558980293571949,-0.0015970865497365594
224,148700902637,0.5925649404525757,-9.684545516967773,0.18555063009262085,0.0779910609126091,-0.0465816929936409,-0.0013309054775163531
225,148702163550,0.645237386226654,-9.700108528137207,0.14844051003456116,0.0785234197974205,-0.0508405901491642,0.0018632676219567657
226,148703424450,0.6165069341659546,-9.707290649414062,0.19033904373645782,0.0811852365732193,-0.0500420443713665,0.0029279920272529125
227,148704685325,0.5805939435958862,-9.71926212310791,0.19153614342212677,0.0763939768075943,-0.0495096817612648,0.0013309054775163531
228,148705946237,0.5638344883918762,-9.728838920593262,0.19153614342212677,0.0731998011469841,-0.0516391322016716,0.0023956298828125
229,148707207137,0.5961562395095825,-9.68933391571045,0.2214636653661728,0.0697394460439682,-0.0497758649289608,0.0053236219100654125
230,148708468050,0.5781997442245483,-9.683348655700684,0.14604631066322327,0.0705379918217659,-0.052703857421875,0.005057440605014563
231,148709728937,0.586579442024231,-9.72285270690918,0.15801730751991272,0.0692070871591568,-0.0564303919672966,0.010647243820130825
232,148710989837,0.5829881429672241,-9.684545516967773,0.13287819921970367,0.0702718123793602,-0.052437674254179,0.0090501569211483
233,148712250737,0.5566518902778625,-9.68574333190918,0.16160862147808075,0.071336530148983,-0.0508405901491642,0.0114457868039608
234,148713511625,0.5805939435958862,-9.65222454071045,0.20231004059314728,0.0660129114985466,-0.0503082275390625,0.010114881210029125
235,148714772512,0.5638344883918762,-9.635464668273926,0.21308395266532898,0.0633511021733284,-0.0465816929936409,0.0066545275039970875
236,148716033425,0.6165069341659546,-9.609128952026367,0.17836803197860718,0.0689409002661705,-0.047646414488554,0.0114457868039608
237,148717294300,0.5781997442245483,-9.556456565856934,0.15921440720558167,0.0705379918217659,-0.0487111397087574,0.012776692397892475
238,148718555212,0.5626373887062073,-9.569623947143555,0.16879121959209442,0.0641496405005455,-0.047646414488554,0.012510511092841625
239,148719816100,0.6260837316513062,-9.557653427124023,0.16519992053508759,0.0598907470703125,-0.0460493303835392,0.012776692397892475
240,148721077000,0.5937620401382446,-9.522937774658203,0.13168109953403473,0.0654805526137352,-0.0473802350461483,0.012776692397892475
241,148722337900,0.5961562395095825,-9.516951560974121,0.10295067727565765,0.0633511021733284,-0.0460493303835392,0.015438503585755825
242,148723598812,0.5734112858772278,-9.502586364746094,0.07900865375995636,0.0668114572763443,-0.04791259765625,0.01756795309484005
243,148724859687,0.5650315880775452,-9.494207382202148,0.08858546614646912,0.0644158273935318,-0.052703857421875,0.0196974016726017
244,148726120587,0.5578489899635315,-9.460687637329102,0.11013327538967133,0.0646820068359375,-0.0500420443713665,0.02422248013317585
245,148727381487,0.52552729845047,-9.467870712280273,0.13766659796237946,0.0657467320561409,-0.0500420443713665,0.0186326764523983
246,148728642375,0.5746083855628967,-9.45111083984375,0.10773907601833344,0.0574951171875,-0.0503082275390625,0.01996358297765255
247,148729903275,0.5315127968788147,-9.422380447387695,0.11971008777618408,0.0604231096804142,-0.0463155098259449,0.01943122036755085
248,148731164150,0.5219359993934631,-9.400833129882812,0.10534487664699554,0.0657467320561409,-0.0463155098259449,0.0223592109978199
249,148732425075,0.5398924946784973,-9.379284858703613,0.11851298809051514,0.0692070871591568,-0.0513729527592659,0.0268842913210392
250,148733685962,0.5386953949928284,-9.334992408752441,0.08379705995321274,0.0678761824965477,-0.0508405901491642,0.02129448764026165
251,148734946862,0.5410895943641663,-9.330204010009766,0.07541735470294952,0.066545270383358,-0.0500420443713665,0.02369011752307415
252,148736207750,0.5793968439102173,-9.334992408752441,0.05626374110579491,0.0702718123793602,-0.0519053116440773,0.02848137728869915
253,148737468662,0.5386953949928284,-9.385271072387695,0.04429273307323456,0.0702718123793602,-0.0481787770986557,0.0244886614382267
254,148738729537,0.5027823448181152,-9.308656692504883,0.13527239859104156,0.0731998011469841,-0.0487111397087574,0.02129448764026165
255,148739990462,0.5111620426177979,-9.317035675048828,0.11013327538967133,0.0753292515873909,-0.0489773228764534,0.02369011752307415
256,148741251350,0.52552729845047,-9.318233489990234,0.02274491637945175,0.0755954310297966,-0.0535023994743824,0.02741665206849575
257,148742512262,0.49559974670410156,-9.285911560058594,0.07781155407428741,0.0787896066904068,-0.0537685826420784,0.0263519287109375
258,148743773125,0.5183447003364563,-9.281123161315918,0.09217676520347595,0.0777248814702034,-0.0521714948117733,0.02129448764026165
259,148745034037,0.5650315880775452,-9.257181167602539,0.06224924325942993,0.0785234197974205,-0.0585598424077034,0.0271504707634449
260,148746294937,0.5482721924781799,-9.260772705078125,0.040701430290937424,0.0843794047832489,-0.0548333041369915,0.02848137728869915
261,148747555837,0.5327098965644836,-9.29309368133545,0.11851298809051514,0.085710309445858,-0.0558980293571949,0.02981228195130825
262,148748816725,0.5303156971931458,-9.288305282592773,0.04908113554120064,0.0886383056640625,-0.0548333041369915,0.0319417305290699
263,148750077625,0.5434837937355042,-9.26795482635498,0.10055647045373917,0.0865088552236557,-0.0543009415268898,0.02981228195130825
264,148751338512,0.5398924946784973,-9.242815971374512,0.07182604819536209,0.0859764963388443,-0.0566965714097023,0.02874755859375
265,148752599412,0.5494692921638489,-9.283516883850098,0.07661445438861847,0.0891706645488739,-0.0593583844602108,0.02794901467859745
266,148753860325,0.5662286877632141,-9.276334762573242,0.0586579404771328,0.0907677561044693,-0.0609554722905159,0.02422248013317585
267,148755121225,0.5841852426528931,-9.228450775146484,0.07661445438861847,0.0913001149892807,-0.0564303919672966,0.0210283063352108
268,148756382087,0.5602431893348694,-9.260772705078125,0.06344634294509888,0.090501569211483,-0.0617540143430233,0.0228915736079216
269,148757643000,0.6224924325942993,-9.297882080078125,0.033518824726343155,0.0928971990942955,-0.0617540143430233,0.0258195661008358
270,148758903900,0.568622887134552,-9.29069995880127,0.021547814831137657,0.0944942906498909,-0.0638834610581398,0.0247548408806324
271,148760164812,0.645237386226654,-9.339780807495117,0.021547814831137657,0.0950266495347023,-0.0686747208237648,0.0247548408806324
272,148761425675,0.5949591398239136,-9.303868293762207,0.05147533863782883,0.0976884588599205,-0.06707763671875,0.0263519287109375
273,148762686600,0.5973533391952515,-9.321824073791504,0.061052143573760986,0.1008826345205307,-0.0686747208237648,0.0268842913210392
274,148763947475,0.6392518877983093,-9.354146003723145,-0.02753331884741783,0.1059400737285614,-0.071336530148983,0.0263519287109375
275,148765208387,0.6272808313369751,-9.317035675048828,0.020350715145468712,0.1027459055185318,-0.0769263356924057,0.0244886614382267
276,148766469275,0.5674257874488831,-9.330204010009766,0.014365210197865963,0.1059400737285614,-0.0721350759267807,0.02502102218568325
277,148767730187,0.5770025849342346,-9.369708061218262,0.035913024097681046,0.1067386195063591,-0.0742645263671875,0.0252872034907341
278,148768991087,0.5901707410812378,-9.391256332397461,0.04429273307323456,0.1123284250497818,-0.0787896066904068,0.0268842913210392
279,148770251975,0.5829881429672241,-9.391256332397461,0.010773907415568829,0.1083357036113739,-0.0787896066904068,0.02315775491297245
280,148771512850,0.5135562419891357,-9.388861656188965,-0.0011971008498221636,0.1112636998295784,-0.0795881450176239,0.0252872034907341
281,148772773762,0.5841852426528931,-9.458293914794922,0.008379706181585789,0.1141916885972023,-0.08624267578125,0.02422248013317585
282,148774034675,0.586579442024231,-9.443928718566895,0.07062894850969315,0.1157887727022171,-0.081451416015625,0.0244886614382267
283,148775295550,0.5746083855628967,-9.458293914794922,0.0454898327589035,0.1147240549325943,-0.0878397598862648,0.0223592109978199
284,148776556450,0.5793968439102173,-9.463082313537598,0.021547814831137657,0.1184505894780159,-0.0891706645488739,0.02262539230287075
285,148777817362,0.5374982953071594,-9.465476036071777,0.015562310814857483,0.1176520437002182,-0.0851779505610466,0.02182685025036335
286,148779078237,0.5039794445037842,-9.48462963104248,0.03232172504067421,0.1195153146982193,-0.0894368439912796,0.01996358297765255
287,148780339125,0.5554547905921936,-9.53849983215332,0.028730420395731926,0.1227094829082489,-0.0881059393286705,0.01783413253724575
288,148781600050,0.5530605912208557,-9.464279174804688,0.0454898327589035,0.1211123988032341,-0.0915662944316864,0.0167694091796875
289,148782860925,0.5339069962501526,-9.501389503479004,0.04788403585553169,0.1181844025850296,-0.0902353897690773,0.01783413253724575
290,148784121812,0.4920084476470947,-9.488221168518066,0.038307227194309235,0.1227094829082489,-0.0915662944316864,0.0196974016726017
291,148785382725,0.48482584953308105,-9.534908294677734,0.031124621629714966,0.1184505894780159,-0.0971560999751091,0.01410759799182415
292,148786643625,0.5434837937355042,-9.526528358459473,0.10295067727565765,0.119781494140625,-0.090501569211483,0.010114881210029125
293,148787904525,0.45250412821769714,-9.551668167114258,0.06464345008134842,0.12457275390625,-0.091033935546875,0.0173017717897892
294,148789165412,0.4704606235027313,-9.582792282104492,0.06584054976701736,0.1269683837890625,-0.0966237336397171,0.0162370465695858
295,148790426312,0.4429273307323456,-9.527726173400879,0.08379705995321274,0.1248389333486557,-0.0950266495347023,0.0071868896484375
296,148791687212,0.44173023104667664,-9.557653427124023,0.09696517139673233,0.1253712922334671,-0.0966237336397171,0.014906140975654125
297,148792948125,0.4273650050163269,-9.542091369628906,0.08619125932455063,0.1277669221162796,-0.0992855504155159,0.01357523538172245
298,148794209012,0.4189853072166443,-9.580398559570312,0.07900865375995636,0.1221771240234375,-0.0992855504155159,0.00984870083630085
299,148795469900,0.4489128291606903,-9.589975357055664,0.04668693244457245,0.1253712922334671,-0.0982208251953125,0.01224433071911335
300,148796730800,0.4010287821292877,-9.53730297088623,0.07661445438861847,0.1280331015586853,-0.0990193635225296,0.01410759799182415
301,148797991700,0.3926490843296051,-9.53969669342041,0.0586579404771328,0.1277669221162796,-0.1030120849609375,0.0090501569211483
302,148799252612,0.38546648621559143,-9.50737476348877,0.0035913025494664907,0.1298963725566864,-0.1035444438457489,0.008251613937318325
303,148800513487,0.4213795065879822,-9.53849983215332,0.03950432687997818,0.1280331015586853,-0.1027459055185318,0.008517795242369175
304,148801774375,0.424970805644989,-9.494207382202148,0.040701430290937424,0.1290978342294693,-0.1024797186255455,0.008517795242369175
305,148803035275,0.41060560941696167,-9.528923034667969,0.05147533863782883,0.1288316547870636,-0.0990193635225296,0.007453070487827063
306,148804296162,0.4321534037590027,-9.519346237182617,0.031124621629714966,0.1298963725566864,-0.095292828977108,0.0090501569211483
307,148805557075,0.4141969084739685,-9.530119895935059,0.08499415963888168,0.1336229145526886,-0.0979546457529068,0.0031941730994731188
308,148806817987,0.424970805644989,-9.510966300964355,-0.014365210197865963,0.1338890939950943,-0.0979546457529068,0.0037265352439135313
309,148808078875,0.43095630407333374,-9.525331497192383,0.038307227194309235,0.1362847238779068,-0.100084088742733,0.005855984054505825
310,148809339762,0.4141969084739685,-9.508572578430176,0.07900865375995636,0.1354861706495285,-0.095292828977108,0.007453070487827063
311,148810600662,0.43335050344467163,-9.498995780944824,0.023942017927765846,0.1352199912071228,-0.0990193635225296,0.007453070487827063
312,148811861562,0.45848962664604187,-9.510966300964355,0.02274491637945175,0.1384141743183136,-0.0998179093003273,0.008783976547420025
313,148813122462,0.45489832758903503,-9.485827445983887,-0.002394201699644327,0.1344214528799057,-0.0984870046377182,0.0031941730994731188
314,148814383362,0.48482584953308105,-9.508572578430176,0.038307227194309235,0.1394788920879364,-0.1011488139629364,0.0071868896484375
315,148815644250,0.48602294921875,-9.487024307250977,-0.002394201699644327,0.1394788920879364,-0.0987531840801239,0.0077192517928779125
316,148816905125,0.5219359993934631,-9.491812705993652,0.011971008963882923,0.1373494416475296,-0.0992855504155159,0.00692070834338665
317,148818166037,0.47884035110473633,-9.489418983459473,0.02992752194404602,0.1394788920879364,-0.100616455078125,0.0090501569211483
318,148819426937,0.49799394607543945,-9.522937774658203,0.04429273307323456,0.1418745219707489,-0.1043429896235466,0.01357523538172245
319,148820687825,0.4967968463897705,-9.485827445983887,0.08259996026754379,0.1418745219707489,-0.1032782644033432,0.010647243820130825
320,148821948725,0.5518634915351868,-9.45111083984375,0.008379706181585789,0.1466657817363739,-0.1059400737285614,0.008783976547420025
321,148823209625,0.5793968439102173,-9.446322441101074,0.06344634294509888,0.1453348845243454,-0.1091342493891716,0.0066545275039970875
322,148824470512,0.5650315880775452,-9.485827445983887,0.05267243832349777,0.1456010639667511,-0.1083357036113739,0.00452507846057415
323,148825731425,0.608127236366272,-9.47265911102295,0.05506663769483566,0.1495937705039978,-0.1078033447265625,0.010114881210029125
324,148826992325,0.5793968439102173,-9.4822359085083,0.02513911761343479,0.1501261442899704,-0.1141916885972023,0.01117960549890995
325,148828253237,0.6057330369949341,-9.48343276977539,0.026336219161748886,0.1479966938495636,-0.1165873184800148,0.010913425125181675
326,148829514112,0.6165069341659546,-9.488221168518066,0.023942017927765846,0.1490614116191864,-0.1165873184800148,0.010647243820130825
327,148830775012,0.5961562395095825,-9.479841232299805,0.05386953800916672,0.148529052734375,-0.1189829483628273,0.008251613937318325
328,148832035900,0.6380547285079956,-9.47265911102295,0.04429273307323456,0.1519894003868103,-0.1187167689204216,0.01224433071911335
329,148833296800,0.6560112833976746,-9.454702377319336,0.0586579404771328,0.1551835834980011,-0.1208462193608284,0.014373779296875
330,148834557687,0.6619967818260193,-9.515754699707031,0.10773907601833344,0.1557159423828125,-0.1227094829082489,0.01783413253724575
331,148835818600,0.6811503767967224,-9.473855972290039,0.020350715145468712,0.1607733815908432,-0.1298963725566864,0.02022976242005825
332,148837079487,0.6631938815116882,-9.509769439697266,-0.011971008963882923,0.1599748432636261,-0.1317596435546875,0.0162370465695858
333,148838340387,0.706289529800415,-9.50737476348877,-0.008379706181585789,0.158111572265625,-0.1320258229970932,0.014906140975654125
334,148839601275,0.6835445761680603,-9.522937774658203,-0.009576806798577309,0.1599748432636261,-0.1352199912071228,0.01783413253724575
335,148840862200,0.7338228225708008,-9.543288230895996,0.026336219161748886,0.167694091796875,-0.1352199912071228,0.01889885775744915
336,148842123087,0.6787561774253845,-9.576807022094727,0.043095629662275314,0.1639675498008728,-0.1400112509727478,0.0157046839594841
337,148843383975,0.6572083830833435,-9.583989143371582,0.07182604819536209,0.16290283203125,-0.1397450715303421,0.01357523538172245
338,148844644875,0.6476315855979919,-9.604340553283691,0.07182604819536209,0.1660970002412796,-0.1410759836435318,0.012776692397892475
339,148845905762,0.6500257849693298,-9.635464668273926,0.10654197633266449,0.1671617329120636,-0.1458672434091568,0.015172322280704975
340,148847166675,0.6404489874839783,-9.617507934570312,0.090979665517807,0.1682264506816864,-0.1509246826171875,0.010381062515079975
341,148848427537,0.6308721303939819,-9.653421401977539,0.08978256583213806,0.1690249890089035,-0.1493275910615921,0.00692070834338665
342,148849688462,0.6536170840263367,-9.671378135681152,0.13048399984836578,0.1698235422372818,-0.1533203125,0.007453070487827063
343,148850949350,0.629675030708313,-9.734824180603027,0.10654197633266449,0.1706220805644989,-0.1586439311504364,0.010114881210029125
344,148852210250,0.585382342338562,-9.724050521850586,0.08858546614646912,0.1687588095664978,-0.1591762900352478,0.006122165359556675
345,148853471137,0.5841852426528931,-9.744400978088379,0.09576807171106339,0.1698235422372818,-0.1602410227060318,0.0037265352439135313
346,148854732050,0.5889736413955688,-9.749189376831055,0.1149216815829277,0.1655646413564682,-0.1634351909160614,0.0002661811013240367
347,148855992937,0.5650315880775452,-9.799468040466309,0.11133038252592087,0.1671617329120636,-0.1655646413564682,-0.0010647244052961469
348,148857253850,0.629675030708313,-9.791088104248047,0.08738835901021957,0.1663631796836853,-0.1684926301240921,0.0
349,148858514737,0.6356605291366577,-9.803058624267578,0.1388636976480484,0.1655646413564682,-0.1682264506816864,-0.0015970865497365594
350,148859775637,0.5901707410812378,-9.823410034179688,0.13527239859104156,0.1613057404756546,-0.1735500693321228,-0.0053236219100654125
351,148861036525,0.6057330369949341,-9.825803756713867,0.13048399984836578,0.1655646413564682,-0.1780751496553421,-0.007985432632267475
352,148862297412,0.5961562395095825,-9.807847023010254,0.1735796183347702,0.1671617329120636,-0.1812693178653717,-0.007985432632267475
353,148863558337,0.6440402865409851,-9.787496566772461,0.09935937076807022,0.1642337292432785,-0.1778089702129364,-0.013042873702943325
354,148864819225,0.6572083830833435,-9.801861763000488,0.19273324310779572,0.1647661030292511,-0.18206787109375,-0.01117960549890995
355,148866080125,0.6368576288223267,-9.816226959228516,0.14844051003456116,0.1658308207988739,-0.1911180317401886,-0.01357523538172245
356,148867341012,0.6883329749107361,-9.795876502990723,0.1149216815829277,0.1623704731464386,-0.1892547607421875,-0.0119781494140625
357,148868601900,0.7098808288574219,-9.859322547912598,0.12330138683319092,0.1610395610332489,-0.1903194785118103,-0.012776692397892475
358,148869862787,0.6404489874839783,-9.849745750427246,0.14006079733371735,0.1610395610332489,-0.1951107382774353,-0.0186326764523983
359,148871123700,0.6655880808830261,-9.821015357971191,0.12330138683319092,0.1615719199180603,-0.2009667307138443,-0.02022976242005825
360,148872384587,0.6799532771110535,-9.80904483795166,0.15083470940589905,0.1586439311504364,-0.1991034597158432,-0.0157046839594841
361,148873645475,0.6236895322799683,-9.84615421295166,0.15801730751991272,0.1562483012676239,-0.2009667307138443,-0.01943122036755085
362,148874906387,0.6739677786827087,-9.829395294189453,0.16639702022075653,0.1530541330575943,-0.2041608989238739,-0.0215606689453125
363,148876167287,0.6153098344802856,-9.832986831665039,0.16879121959209442,0.1517232209444046,-0.2089521586894989,-0.0263519287109375
364,148877428187,0.6165069341659546,-9.84615421295166,0.1496376097202301,0.1543850302696228,-0.2073550671339035,-0.0271504707634449
365,148878689087,0.6057330369949341,-9.827000617980957,0.1999158412218094,0.152255579829216,-0.2094845175743103,-0.0228915736079216
366,148879949975,0.6021417379379272,-9.815030097961426,0.11851298809051514,0.1527879536151886,-0.2113477885723114,-0.0234239362180233
367,148881210887,0.5422866940498352,-9.821015357971191,0.1604115217924118,0.1514570415019989,-0.2174699604511261,-0.02848137728869915
368,148882471762,0.5351040959358215,-9.785102844238281,0.1496376097202301,0.1466657817363739,-0.2195993959903717,-0.02422248013317585
369,148883732675,0.5434837937355042,-9.81143856048584,0.1256955862045288,0.1466657817363739,-0.2217288464307785,-0.0228915736079216
370,148884993550,0.4704606235027313,-9.817423820495605,0.1280897855758667,0.1453348845243454,-0.2230597585439682,-0.02741665206849575
371,148886254450,0.47884035110473633,-9.853337287902832,0.08140286058187485,0.1458672434091568,-0.2227935791015625,-0.03087700717151165
372,148887515350,0.4812345504760742,-9.858125686645508,0.13766659796237946,0.1466657817363739,-0.2273186594247818,-0.0282151959836483
373,148888776237,0.3770867586135864,-9.849745750427246,0.10295067727565765,0.1440039724111557,-0.2286495566368103,-0.0292799212038517
374,148890037162,0.4345476031303406,-9.819818496704102,0.10893617570400238,0.1386803537607193,-0.2267862856388092,-0.0330064557492733
375,148891298037,0.46567222476005554,-9.876082420349121,0.08379705995321274,0.1360185444355011,-0.2307790070772171,-0.0330064557492733
376,148892558950,0.43933600187301636,-9.829395294189453,0.08499415963888168,0.1397450715303421,-0.2350379079580307,-0.02874755859375
377,148893819837,0.42018240690231323,-9.862914085388184,0.08499415963888168,0.1349538117647171,-0.2376997172832489,-0.0311431884765625
378,148895080737,0.42018240690231323,-9.827000617980957,0.09816227108240128,0.1368170827627182,-0.2371673583984375,-0.033272635191679
379,148896341625,0.424970805644989,-9.827000617980957,0.061052143573760986,0.1370832622051239,-0.2424909770488739,-0.0314093679189682
380,148897602525,0.4034229815006256,-9.824606895446777,0.09576807171106339,0.1320258229970932,-0.2408938854932785,-0.0327402763068676
381,148898863437,0.395043283700943,-9.806650161743164,0.08499415963888168,0.1296301931142807,-0.2398291677236557,-0.0311431884765625
382,148900124312,0.39384618401527405,-9.852140426635742,0.1280897855758667,0.1325581818819046,-0.2446204274892807,-0.02901373989880085
383,148901385225,0.37229835987091064,-9.84615421295166,0.06584054976701736,0.1253712922334671,-0.2446204274892807,-0.0263519287109375
384,148902646112,0.3555389642715454,-9.817423820495605,0.0694318488240242,0.1275007426738739,-0.23956298828125,-0.0292799212038517
385,148903907012,0.31962594389915466,-9.823410034179688,0.05386953800916672,0.1272345632314682,-0.2438218891620636,-0.02848137728869915
386,148905167912,0.33279404044151306,-9.823410034179688,0.08140286058187485,0.1235080286860466,-0.2462175190448761,-0.0263519287109375
387,148906428800,0.30526071786880493,-9.832986831665039,0.09816227108240128,0.1211123988032341,-0.2454189658164978,-0.02741665206849575
388,148907689687,0.32680854201316833,-9.817423820495605,0.09816227108240128,0.1181844025850296,-0.2448866069316864,-0.0252872034907341
389,148908950587,0.2992752194404602,-9.84256362915039,0.09935937076807022,0.1112636998295784,-0.2475484162569046,-0.0210283063352108
390,148910211487,0.2561795711517334,-9.841365814208984,0.07302315533161163,0.1139255091547966,-0.2526058554649353,-0.01889885775744915
391,148911472387,0.2406172752380371,-9.804256439208984,0.038307227194309235,0.1131269633769989,-0.2510087788105011,-0.01889885775744915
392,148912733287,0.27413609623908997,-9.835380554199219,0.043095629662275314,0.1139255091547966,-0.2464836984872818,-0.01597086526453495
393,148913994187,0.28969842195510864,-9.825803756713867,0.043095629662275314,0.1086018830537796,-0.2456851452589035,-0.01703559048473835
394,148915255087,0.1999158412218094,-9.81263542175293,0.0454898327589035,0.1086018830537796,-0.2464836984872818,-0.01756795309484005
395,148916516000,0.23343466222286224,-9.813833236694336,0.09816227108240128,0.1078033447265625,-0.2440880686044693,-0.0162370465695858
396,148917776875,0.15083470940589905,-9.78869342803955,0.09457096457481384,0.1027459055185318,-0.2403615266084671,-0.0157046839594841
397,148919037775,0.13048399984836578,-9.822212219238281,0.040701430290937424,0.1014149934053421,-0.2408938854932785,-0.01650322787463665
398,148920298675,0.13407529890537262,-9.759963035583496,0.02992752194404602,0.0979546457529068,-0.2363688051700592,-0.01357523538172245
399,148921559575,0.1280897855758667,-9.75158405303955,0.038307227194309235,0.095292828977108,-0.2358364462852478,-0.01650322787463665
400,148922820450,0.10175357013940811,-9.785102844238281,0.02513911761343479,0.0971560999751091,-0.244354248046875,-0.00984870083630085
401,148924081375,0.06344634294509888,-9.830592155456543,0.002394201699644327,0.0982208251953125,-0.2379658967256546,-0.004791259765625
402,148925342262,0.0933738648891449,-9.798270225524902,0.03950432687997818,0.0886383056640625,-0.2339731752872467,-0.008517795242369175
403,148926603150,0.033518824726343155,-9.769539833068848,0.040701430290937424,0.0833146795630455,-0.2339731752872467,-0.00984870083630085
404,148927864062,0.038307227194309235,-9.806650161743164,0.017956512048840523,0.0875735804438591,-0.2318437397480011,-0.008251613937318325
405,148929124950,0.05267243832349777,-9.825803756713867,0.0071826050989329815,0.0907677561044693,-0.22998046875,-0.003460354171693325
406,148930385850,0.038307227194309235,-9.792284965515137,0.038307227194309235,0.0849117711186409,-0.2302466481924057,0.00452507846057415
407,148931646750,0.010773907415568829,-9.822212219238281,0.010773907415568829,0.0822499617934227,-0.2283833771944046,0.0026618109550327063
408,148932907650,-0.020350715145468712,-9.840168952941895,0.038307227194309235,0.0827823206782341,-0.2246568500995636,-0.0013309054775163531
409,148934168550,-0.043095629662275314,-9.873687744140625,0.033518824726343155,0.0793219655752182,-0.2201317697763443,-0.0007985432748682797
410,148935429425,-0.05386953800916672,-9.910798072814941,0.05386953800916672,0.0790557861328125,-0.215606689453125,-0.0015970865497365594
411,148936690337,-0.02992752194404602,-9.90241813659668,0.08499415963888168,0.0798543319106102,-0.2118801474571228,0.0031941730994731188
412,148937951225,-0.02513911761343479,-9.93593692779541,0.08858546614646912,0.0817175954580307,-0.2150743305683136,0.005057440605014563
413,148939212125,-0.04189852997660637,-9.952696800231934,0.08140286058187485,0.0801205113530159,-0.2116139680147171,0.0063883461989462376
414,148940473012,-0.061052143573760986,-9.953893661499023,0.03711012750864029,0.0793219655752182,-0.2041608989238739,0.006122165359556675
415,148941733912,-0.06703764945268631,-9.945513725280762,0.061052143573760986,0.0774587020277977,-0.209750697016716,0.01463996060192585
416,148942994800,-0.08978256583213806,-9.961075782775879,0.07781155407428741,0.0745307058095932,-0.206024169921875,0.012510511092841625
417,148944255712,-0.07182604819536209,-9.980230331420898,0.08499415963888168,0.0721350759267807,-0.1969740092754364,0.007985432632267475
418,148945516600,-0.12090718746185303,-9.971850395202637,0.1041477769613266,0.071336530148983,-0.195376917719841,0.008251613937318325
419,148946777512,-0.11611878126859665,-10.014945983886719,0.12449848651885986,0.0734659805893898,-0.1924489289522171,0.01117960549890995
420,148948038387,-0.18315643072128296,-9.963470458984375,0.1496376097202301,0.071336530148983,-0.1897871196269989,0.013309055007994175
421,148949299275,-0.07182604819536209,-9.967061996459961,0.12210428714752197,0.071336530148983,-0.1860605776309967,0.008251613937318325
422,148950560187,-0.1364694982767105,-9.950302124023438,0.15562310814857483,0.071868896484375,-0.1844635009765625,0.0167694091796875
423,148951821087,-0.12928690016269684,-9.965864181518555,0.19393034279346466,0.0686747208237648,-0.1775427907705307,0.01836649514734745
424,148953081975,-0.16400282084941864,-9.99220085144043,0.13048399984836578,0.0673438161611557,-0.176211878657341,0.0167694091796875
425,148954342875,-0.14844051003456116,-9.952696800231934,0.13766659796237946,0.0638834610581398,-0.1690249890089035,0.0173017717897892
426,148955603775,-0.1735796183347702,-9.931148529052734,0.18914192914962769,0.0606892891228199,-0.1634351909160614,0.0167694091796875
427,148956864662,-0.14844051003456116,-9.943120002746582,0.20350714027881622,0.0585598424077034,-0.1623704731464386,0.0204959437251091
428,148958125550,-0.14844051003456116,-9.919178009033203,0.22744916379451752,0.0612216517329216,-0.158111572265625,0.02022976242005825
429,148959386475,-0.13287819921970367,-9.904812812805176,0.25737667083740234,0.0590922012925148,-0.1511908620595932,0.01597086526453495
430,148960647362,-0.18914192914962769,-9.888052940368652,0.19273324310779572,0.0582936592400074,-0.1477305144071579,0.02422248013317585
431,148961908250,-0.152031809091568,-9.872490882873535,0.22744916379451752,0.0574951171875,-0.1456010639667511,0.0220930315554142
432,148963169162,-0.14006079733371735,-9.84376049041748,0.243011474609375,0.0569627545773983,-0.1469319611787796,0.01996358297765255
433,148964430050,-0.17717093229293823,-9.813833236694336,0.26336219906806946,0.0537685826420784,-0.1413421630859375,0.02369011752307415
434,148965690962,-0.19153614342212677,-9.805453300476074,0.24660277366638184,0.0582936592400074,-0.1354861706495285,0.0282151959836483
435,148966951850,-0.15801730751991272,-9.805453300476074,0.25258827209472656,0.0582936592400074,-0.1338890939950943,0.02555338479578495
436,148968212737,-0.15083470940589905,-9.771934509277344,0.2346317619085312,0.0598907470703125,-0.1290978342294693,0.0223592109978199
437,148969473650,-0.14245499670505524,-9.789891242980957,0.23104046285152435,0.0606892891228199,-0.1237742081284523,0.02502102218568325
438,148970734550,-0.15921440720558167,-9.780314445495605,0.25498247146606445,0.0564303919672966,-0.1203138530254364,0.02315775491297245
439,148971995437,-0.17836803197860718,-9.740809440612793,0.2669534981250763,0.0609554722905159,-0.1200476735830307,0.02555338479578495
440,148973256337,-0.14604631066322327,-9.691728591918945,0.18315643072128296,0.0662790909409523,-0.1133931428194046,0.02262539230287075
441,148974517225,-0.15682020783424377,-9.756372451782227,0.23822307586669922,0.0644158273935318,-0.1094004288315773,0.0204959437251091
442,148975778125,-0.16879121959209442,-9.743204116821289,0.2322375625371933,0.0614878311753273,-0.1064724400639534,0.01703559048473835
443,148977039012,-0.20470423996448517,-9.769539833068848,0.27054479718208313,0.0633511021733284,-0.10540771484375,0.01889885775744915
444,148978299900,-0.20231004059314728,-9.750386238098145,0.23104046285152435,0.0702718123793602,-0.1027459055185318,0.0215606689453125
445,148979560800,-0.18555063009262085,-9.72165584564209,0.22744916379451752,0.0676099956035614,-0.0976884588599205,0.0167694091796875
446,148980821712,-0.1256955862045288,-9.764751434326172,0.20949265360832214,0.0724012553691864,-0.0915662944316864,0.01703559048473835
447,148982082612,-0.22026655077934265,-9.708487510681152,0.27892449498176575,0.0702718123793602,-0.0854441300034523,0.0167694091796875
448,148983343487,-0.24899697303771973,-9.718064308166504,0.3124433159828186,0.0734659805893898,-0.0849117711186409,0.01463996060192585
449,148984604387,-0.21787235140800476,-9.72285270690918,0.33518823981285095,0.0745307058095932,-0.0819837749004364,0.01410759799182415
450,148985865287,-0.18555063009262085,-9.7420072555542,0.3531447649002075,0.0726674422621727,-0.0750630721449852,0.0162370465695858
451,148987126200,-0.22266076505184174,-9.744400978088379,0.3100491166114807,0.0731998011469841,-0.0745307058095932,0.01597086526453495
452,148988387075,-0.23582887649536133,-9.736021041870117,0.304063618183136,0.0771925151348114,-0.0662790909409523,0.0119781494140625
453,148989647975,-0.2322375625371933,-9.767146110534668,0.333991140127182,0.0774587020277977,-0.0657467320561409,0.0066545275039970875
454,148990908887,-0.2908955216407776,-9.75517463684082,0.3423708379268646,0.0782572403550148,-0.0630849227309227,0.0053236219100654125
455,148992169787,-0.2597709000110626,-9.767146110534668,0.3280056416988373,0.0825161412358284,-0.0580274797976017,0.0066545275039970875
456,148993430675,-0.2513911724090576,-9.780314445495605,0.40222588181495667,0.0849117711186409,-0.0585598424077034,0.0042588976211845875
457,148994691562,-0.21188685297966003,-9.75158405303955,0.38067808747291565,0.0822499617934227,-0.0535023994743824,0.005855984054505825
458,148995952475,-0.27892449498176575,-9.804256439208984,0.3758896589279175,0.081451416015625,-0.0505744069814682,0.003460354171693325
459,148997213375,-0.25019407272338867,-9.830592155456543,0.31603461503982544,0.0806528702378273,-0.0471140518784523,0.0026618109550327063
460,148998474262,-0.2717418968677521,-9.817423820495605,0.3519476652145386,0.0851779505610466,-0.0444522425532341,0.0007985432748682797
461,148999735150,-0.22744916379451752,-9.787496566772461,0.3711012601852417,0.0851779505610466,-0.0399271659553051,-0.0039927163161337376
462,149000996062,-0.21428105235099792,-9.847352027893066,0.37469255924224854,0.0859764963388443,-0.0377977155148983,-0.0042588976211845875
463,149002256950,-0.2561795711517334,-9.841365814208984,0.4297592043876648,0.0838470458984375,-0.0319417305290699,-0.0007985432748682797
464,149003517850,-0.23822307586669922,-9.817423820495605,0.4034229815006256,0.0873074010014534,-0.02901373989880085,-0.0002661811013240367
465,149004778750,-0.25258827209472656,-9.861717224121094,0.3902548849582672,0.0851779505610466,-0.0268842913210392,-0.005057440605014563
466,149006039637,-0.2214636653661728,-9.81024169921875,0.3687070608139038,0.0843794047832489,-0.0210283063352108,-0.01171196810901165
467,149007300537,-0.24181437492370605,-9.854534149169922,0.3687070608139038,0.0790557861328125,-0.01943122036755085,-0.01171196810901165
468,149008561425,-0.22505496442317963,-9.873687744140625,0.42018240690231323,0.0833146795630455,-0.0196974016726017,-0.01357523538172245
469,149009822337,-0.27413609623908997,-9.848548889160156,0.42018240690231323,0.0811852365732193,-0.015172322280704975,-0.015172322280704975
470,149011083225,-0.22385786473751068,-9.858125686645508,0.46327802538871765,0.0830485001206398,-0.0119781494140625,-0.01836649514734745
471,149012344125,-0.22625206410884857,-9.886856079101562,0.40701428055763245,0.0819837749004364,-0.0114457868039608,-0.0162370465695858
472,149013605012,-0.23582887649536133,-9.830592155456543,0.41060560941696167,0.0793219655752182,-0.007453070487827063,-0.01996358297765255
473,149014865925,-0.19393034279346466,-9.872490882873535,0.40701428055763245,0.0782572403550148,-0.005057440605014563,-0.0223592109978199
474,149016126812,-0.17836803197860718,-9.86889934539795,0.39384618401527405,0.0747968852519989,-0.0007985432748682797,-0.02022976242005825
475,149017387700,-0.15682020783424377,-9.921571731567383,0.4189853072166443,0.0771925151348114,0.003460354171693325,-0.023956298828125
476,149018648612,-0.1759738326072693,-9.906009674072266,0.4513070285320282,0.0779910609126091,0.00692070834338665,-0.02555338479578495
477,149019909512,-0.12090718746185303,-9.896432876586914,0.3519476652145386,0.0811852365732193,0.00452507846057415,-0.02555338479578495
478,149021170387,-0.1412578970193863,-9.907206535339355,0.4034229815006256,0.0833146795630455,0.0013309054775163531,-0.0292799212038517
479,149022431300,-0.13168109953403473,-9.908403396606445,0.39863458275794983,0.081451416015625,0.0037265352439135313,-0.02981228195130825
480,149023692200,-0.08499415963888168,-9.872490882873535,0.4321534037590027,0.0777248814702034,0.007985432632267475,-0.0282151959836483
481,149024953075,-0.08619125932455063,-9.870096206665039,0.4058171808719635,0.0763939768075943,0.010647243820130825,-0.0276828333735466
482,149026213975,-0.09935937076807022,-9.909601211547852,0.3711012601852417,0.0811852365732193,0.00692070834338665,-0.0300784632563591
483,149027474875,-0.10175357013940811,-9.921571731567383,0.41539400815963745,0.0795881450176239,0.0066545275039970875,-0.02901373989880085
484,149028735787,-0.07422025501728058,-9.876082420349121,0.4441244304180145,0.0771925151348114,0.008783976547420025,-0.033272635191679
485,149029996687,-0.04908113554120064,-9.90361499786377,0.4465186297893524,0.0777248814702034,0.007985432632267475,-0.0316755510866642
486,149031257600,-0.11372458189725876,-9.888052940368652,0.48482584953308105,0.0755954310297966,0.005855984054505825,-0.0327402763068676
487,149032518487,-0.07062894850969315,-9.894038200378418,0.4644751250743866,0.0731998011469841,0.005855984054505825,-0.0351359061896801
488,149033779362,-0.05027823522686958,-9.86889934539795,0.5015852451324463,0.0737321600317955,0.008517795242369175,-0.033538818359375
489,149035040275,-0.05626374110579491,-9.897629737854004,0.4812345504760742,0.0686747208237648,0.010913425125181675,-0.0356682650744915
490,149036301162,-0.043095629662275314,-9.898826599121094,0.4752490520477295,0.0684085413813591,0.01171196810901165,-0.0343373604118824
491,149037562075,-0.08978256583213806,-9.830592155456543,0.43694180250167847,0.0729336217045784,0.007985432632267475,-0.0404595248401165
492,149038822962,-0.05386953800916672,-9.847352027893066,0.4465186297893524,0.0737321600317955,0.01410759799182415,-0.0401933453977108
493,149040083850,-0.06823474913835526,-9.789891242980957,0.4836287498474121,0.0684085413813591,0.0138414166867733,-0.0409918874502182
494,149041344762,-0.07541735470294952,-9.800664901733398,0.4704606235027313,0.0726674422621727,0.007453070487827063,-0.0436537005007267
495,149042605637,-0.08738835901021957,-9.78869342803955,0.4082113802433014,0.0726674422621727,0.0053236219100654125,-0.0471140518784523
496,149043866537,-0.07182604819536209,-9.738415718078613,0.44173023104667664,0.0673438161611557,0.007453070487827063,-0.0452507846057415
497,149045127437,-0.06224924325942993,-9.726444244384766,0.43335050344467163,0.0678761824965477,0.007453070487827063,-0.0412580706179142
498,149046388337,-0.07302315533161163,-9.731232643127441,0.4441244304180145,0.0676099956035614,0.00452507846057415,-0.0460493303835392
499,149047649237,-0.06464345008134842,-9.730035781860352,0.46088382601737976,0.0660129114985466,0.005855984054505825,-0.0465816929936409
500,149048910137,-0.0454898327589035,-9.700108528137207,0.4441244304180145,0.0596245639026165,0.01357523538172245,-0.0447184219956398
501,149050171025,-0.03232172504067421,-9.68694019317627,0.3711012601852417,0.0660129114985466,0.010114881210029125,-0.0449846051633358
502,149051431937,-0.019153613597154617,-9.660603523254395,0.42018240690231323,0.06707763671875,0.0066545275039970875,-0.0457831472158432
503,149052692825,-0.04429273307323456,-9.659406661987305,0.41539400815963745,0.0646820068359375,0.010114881210029125,-0.0516391322016716
504,149053953725,-0.05147533863782883,-9.651026725769043,0.3627215623855591,0.0652143657207489,0.0053236219100654125,-0.0519053116440773
505,149055214612,-0.0035913025494664907,-9.667786598205566,0.38307228684425354,0.0660129114985466,0.0026618109550327063,-0.0497758649289608
506,149056475512,0.04908113554120064,-9.659406661987305,0.4118027091026306,0.0609554722905159,0.0015970865497365594,-0.0513729527592659
507,149057736400,-0.02274491637945175,-9.66539192199707,0.4010287821292877,0.0582936592400074,0.00452507846057415,-0.0548333041369915
508,149058997312,-0.0059855044819414616,-9.667786598205566,0.3926490843296051,0.0604231096804142,0.0023956298828125,-0.0545671246945858
509,149060258187,-0.035913024097681046,-9.66419506072998,0.3687070608139038,0.0612216517329216,0.0018632676219567657,-0.057228934019804
510,149061519087,0.035913024097681046,-9.68813705444336,0.4465186297893524,0.0569627545773983,0.0015970865497365594,-0.0577612966299057
511,149062780000,-0.014365210197865963,-9.68933391571045,0.40701428055763245,0.057228934019804,-0.003460354171693325,-0.0553656667470932
512,149064040900,-0.040701430290937424,-9.727641105651855,0.3902548849582672,0.0558980293571949,-0.0053236219100654125,-0.0561642125248909
513,149065301800,-0.0454898327589035,-9.706093788146973,0.4297592043876648,0.0556318499147892,-0.008251613937318325,-0.0564303919672966
514,149066562700,0.013168109580874443,-9.736021041870117,0.4010287821292877,0.0535023994743824,-0.006122165359556675,-0.0636172816157341
515,149067823600,-0.028730420395731926,-9.72285270690918,0.4010287821292877,0.0558980293571949,-0.005589802749454975,-0.0593583844602108
516,149069084475,-0.0694318488240242,-9.747992515563965,0.44173023104667664,0.0532362200319767,-0.005589802749454975,-0.0604231096804142
517,149070345400,-0.07781155407428741,-9.739612579345703,0.42377370595932007,0.0505744069814682,-0.0071868896484375,-0.0636172816157341
518,149071606275,-0.0586579404771328,-9.740809440612793,0.45848962664604187,0.0471140518784523,-0.0114457868039608,-0.0641496405005455
519,149072867175,-0.026336219161748886,-9.750386238098145,0.39624038338661194,0.0492435023188591,-0.012510511092841625,-0.0612216517329216
520,149074128075,-0.023942017927765846,-9.734824180603027,0.42856210470199585,0.0425889752805233,-0.013309055007994175,-0.0601569265127182
521,149075388975,-0.0586579404771328,-9.726444244384766,0.42856210470199585,0.0364668108522892,-0.0090501569211483,-0.0636172816157341
522,149076649862,-0.08379705995321274,-9.708487510681152,0.42018240690231323,0.0343373604118824,-0.0090501569211483,-0.0628187358379364
523,149077910775,-0.08259996026754379,-9.72165584564209,0.4441244304180145,0.0343373604118824,-0.008517795242369175,-0.062286376953125
524,149079171662,-0.08140286058187485,-9.694122314453125,0.4537012279033661,0.0338049978017807,-0.00958251953125,-0.0625525563955307
525,149080432562,-0.05386953800916672,-9.692925453186035,0.48482584953308105,0.033272635191679,-0.01117960549890995,-0.0657467320561409
526,149081693462,-0.10773907601833344,-9.734824180603027,0.47165775299072266,0.03034464456140995,-0.012510511092841625,-0.0668114572763443
527,149082954362,-0.08499415963888168,-9.679757118225098,0.4728548526763916,0.0311431884765625,-0.01463996060192585,-0.0660129114985466
528,149084215237,-0.04668693244457245,-9.72165584564209,0.5219359993934631,0.0271504707634449,-0.012510511092841625,-0.0710703507065773
529,149085476150,-0.11372458189725876,-9.695320129394531,0.507570743560791,0.02262539230287075,-0.0090501569211483,-0.0694732666015625
530,149086737025,-0.10534487664699554,-9.715670585632324,0.4429273307323456,0.02369011752307415,-0.01357523538172245,-0.0684085413813591
531,149087997937,-0.10295067727565765,-9.634267807006836,0.45010992884635925,0.0204959437251091,-0.013309055007994175,-0.0755954310297966
532,149089258837,-0.1364694982767105,-9.627084732055664,0.424970805644989,0.0191650390625,-0.01171196810901165,-0.0790557861328125
533,149090519737,-0.11252748221158981,-9.643844604492188,0.424970805644989,0.015172322280704975,-0.012510511092841625,-0.0721350759267807
534,149091780637,-0.14245499670505524,-9.654618263244629,0.4429273307323456,0.02262539230287075,-0.012776692397892475,-0.0724012553691864
535,149093041512,-0.10295067727565765,-9.613917350769043,0.3842693865299225,0.02076212503015995,-0.0077192517928779125,-0.0787896066904068
536,149094302425,-0.15682020783424377,-9.592369079589844,0.4357447028160095,0.012776692397892475,-0.01357523538172245,-0.0753292515873909
537,149095563312,-0.18555063009262085,-9.621099472045898,0.40940847992897034,0.007453070487827063,-0.01171196810901165,-0.0787896066904068
538,149096824212,-0.1975216418504715,-9.57321548461914,0.42856210470199585,0.0090501569211483,-0.008251613937318325,-0.0774587020277977
539,149098085125,-0.18794482946395874,-9.59715747833252,0.4189853072166443,0.005057440605014563,-0.010114881210029125,-0.0817175954580307
540,149099346012,-0.16879121959209442,-9.616311073303223,0.4213795065879822,0.0042588976211845875,-0.0119781494140625,-0.0793219655752182
541,149100606900,-0.14844051003456116,-9.59835433959961,0.3974374830722809,0.004791259765625,-0.0071868896484375,-0.0790557861328125
542,149101867787,-0.15801730751991272,-9.585186958312988,0.39624038338661194,0.0039927163161337376,-0.007453070487827063,-0.0825161412358284
543,149103128700,-0.15562310814857483,-9.604340553283691,0.3842693865299225,0.0026618109550327063,-0.010647243820130825,-0.0803866907954216
544,149104389612,-0.17956513166427612,-9.57321548461914,0.39384618401527405,-0.0015970865497365594,-0.00984870083630085,-0.0777248814702034
545,149105650500,-0.152031809091568,-9.591172218322754,0.3555389642715454,0.0005323622026480734,-0.00692070834338665,-0.0747968852519989
546,149106911387,-0.15682020783424377,-9.57201862335205,0.4620809257030487,-0.0039927163161337376,-0.007453070487827063,-0.0763939768075943
547,149108172312,-0.18914192914962769,-9.59476375579834,0.40940847992897034,-0.0114457868039608,-0.007453070487827063,-0.0769263356924057
548,149109433187,-0.13168109953403473,-9.57201862335205,0.42856210470199585,-0.01224433071911335,-0.0053236219100654125,-0.076127789914608
549,149110694087,-0.17956513166427612,-9.56124496459961,0.4058171808719635,-0.005589802749454975,-0.008783976547420025,-0.0716027170419693
550,149111954975,-0.1711854189634323,-9.50737476348877,0.4812345504760742,-0.00931633822619915,-0.004791259765625,-0.0745307058095932
551,149113215875,-0.16759411990642548,-9.531316757202148,0.45250412821769714,-0.0167694091796875,-0.006122165359556675,-0.0729336217045784
552,149114476775,-0.14604631066322327,-9.489418983459473,0.43694180250167847,-0.0138414166867733,-0.00958251953125,-0.0700056254863739
553,149115737662,-0.13048399984836578,-9.5037841796875,0.4668693244457245,-0.01463996060192585,-0.0039927163161337376,-0.066545270383358
554,149116998575,-0.14365209639072418,-9.441534042358398,0.4776432514190674,-0.0181003138422966,-0.0010647244052961469,-0.062286376953125
555,149118259462,-0.1604115217924118,-9.481039047241211,0.4405331015586853,-0.0173017717897892,-0.0023956298828125,-0.0588260218501091
556,149119520362,-0.1280897855758667,-9.458293914794922,0.38905778527259827,-0.0157046839594841,-0.006122165359556675,-0.0590922012925148
557,149120781250,-0.1711854189634323,-9.412803649902344,0.4297592043876648,-0.0204959437251091,-0.0053236219100654125,-0.0561642125248909
558,149122042150,-0.07900865375995636,-9.442731857299805,0.42616790533065796,-0.0181003138422966,-0.005589802749454975,-0.0503082275390625
559,149123303050,-0.13287819921970367,-9.399636268615723,0.44771572947502136,-0.01943122036755085,-0.0039927163161337376,-0.04791259765625
560,149124563937,-0.11851298809051514,-9.378087997436523,0.42377370595932007,-0.0196974016726017,-0.0071868896484375,-0.0457831472158432
561,149125824837,-0.12090718746185303,-9.327810287475586,0.395043283700943,-0.02182685025036335,-0.0005323622026480734,-0.04791259765625
562,149127085737,-0.10893617570400238,-9.376891136169434,0.42616790533065796,-0.0210283063352108,-0.0021294488105922937,-0.0404595248401165
563,149128346637,-0.13048399984836578,-9.348160743713379,0.46327802538871765,-0.01943122036755085,-0.0023956298828125,-0.0327402763068676
564,149129607525,-0.11252748221158981,-9.350554466247559,0.3974374830722809,-0.01703559048473835,0.0,-0.0276828333735466
565,149130868425,-0.0347159244120121,-9.336189270019531,0.40940847992897034,-0.014906140975654125,0.0007985432748682797,-0.0276828333735466
566,149132129312,-0.11372458189725876,-9.369708061218262,0.39384618401527405,-0.01756795309484005,-0.0018632676219567657,-0.01703559048473835
567,149133390225,-0.10654197633266449,-9.3026704788208,0.40940847992897034,-0.01996358297765255,-0.0021294488105922937,-0.0162370465695858
568,149134651100,-0.12330138683319092,-9.355342864990234,0.39863458275794983,-0.01410759799182415,-0.008517795242369175,-0.015172322280704975
569,149135912012,-0.08978256583213806,-9.32302188873291,0.4213795065879822,-0.01224433071911335,-0.004791259765625,-0.010114881210029125
570,149137172925,-0.10295067727565765,-9.36013126373291,0.39384618401527405,-0.0181003138422966,0.0005323622026480734,-0.008517795242369175
571,149138433812,-0.06584054976701736,-9.378087997436523,0.456095427274704,-0.0181003138422966,-0.0013309054775163531,-0.008251613937318325
572,149139694700,-0.08978256583213806,-9.397241592407227,0.4345476031303406,-0.01410759799182415,0.0018632676219567657,-0.0026618109550327063
573,149140955612,-0.04429273307323456,-9.421183586120605,0.3974374830722809,-0.01171196810901165,-0.0029279920272529125,-0.0010647244052961469
574,149142216500,-0.05147533863782883,-9.41519832611084,0.4189853072166443,-0.01224433071911335,-0.0018632676219567657,0.007453070487827063
575,149143477400,-0.09935937076807022,-9.396044731140137,0.42018240690231323,-0.013042873702943325,-0.0018632676219567657,0.01410759799182415
576,149144738300,-0.07781155407428741,-9.429563522338867,0.4082113802433014,-0.013309055007994175,-0.006122165359556675,0.01783413253724575
577,149145999200,-0.06224924325942993,-9.437943458557129,0.40701428055763245,-0.008517795242369175,-0.0077192517928779125,0.0157046839594841
578,149147260087,-0.05506663769483566,-9.384073257446289,0.42616790533065796,-0.012510511092841625,-0.005855984054505825,0.01836649514734745
579,149148520987,-0.07182604819536209,-9.429563522338867,0.45010992884635925,-0.01357523538172245,-0.0031941730994731188,0.02741665206849575
580,149149781862,-0.0071826050989329815,-9.437943458557129,0.4537012279033661,-0.01171196810901165,0.0,0.03034464456140995
581,149151042787,-0.05506663769483566,-9.370905876159668,0.45848962664604187,-0.006122165359556675,-0.005589802749454975,0.0359344482421875
582,149152303687,-0.008379706181585789,-9.400833129882812,0.42377370595932007,-0.004791259765625,-0.0063883461989462376,0.0407257080078125
583,149153564562,-0.05386953800916672,-9.39365005493164,0.42616790533065796,-0.01357523538172245,-0.006122165359556675,0.0388624407351017
584,149154825462,-0.04908113554120064,-9.35773754119873,0.44173023104667664,-0.013309055007994175,-0.0077192517928779125,0.0417904332280159
585,149156086375,-0.04788403585553169,-9.346963882446289,0.42856210470199585,-0.010114881210029125,-0.0077192517928779125,0.0508405901491642
586,149157347262,-0.07302315533161163,-9.331400871276855,0.4692635238170624,-0.01224433071911335,-0.0071868896484375,0.0529700368642807
587,149158608162,-0.0059855044819414616,-9.317035675048828,0.43335050344467163,-0.01410759799182415,-0.0063883461989462376,0.047646414488554
588,149159869050,-0.009576806798577309,-9.29189682006836,0.45848962664604187,-0.01410759799182415,-0.0063883461989462376,0.0492435023188591
589,149161129950,-0.02513911761343479,-9.29309368133545,0.4812345504760742,-0.01224433071911335,-0.00692070834338665,0.0550994873046875
590,149162390850,-0.05626374110579491,-9.29189682006836,0.4441244304180145,-0.0114457868039608,-0.0029279920272529125,0.0550994873046875
591,149163651750,-0.03232172504067421,-9.279926300048828,0.4321534037590027,-0.0114457868039608,-0.005057440605014563,0.0569627545773983
592,149164912662,-0.026336219161748886,-9.26915168762207,0.4297592043876648,-0.01117960549890995,-0.007985432632267475,0.0601569265127182
593,149166173525,-0.035913024097681046,-9.232041358947754,0.4225766062736511,-0.010913425125181675,-0.0063883461989462376,0.0633511021733284
594,149167434437,-0.04668693244457245,-9.220070838928223,0.45848962664604187,-0.007985432632267475,-0.0039927163161337376,0.0649481862783432
595,149168695325,-0.05027823522686958,-9.205705642700195,0.3711012601852417,-0.0066545275039970875,-0.006122165359556675,0.0606892891228199
596,149169956225,-0.04908113554120064,-9.251195907592773,0.3818751871585846,-0.0114457868039608,-0.01224433071911335,0.0668114572763443
597,149171217125,-0.04189852997660637,-9.253589630126953,0.39145198464393616,-0.006122165359556675,-0.007985432632267475,0.0649481862783432
598,149172478025,0.0059855044819414616,-9.240421295166016,0.3878606855869293,-0.0026618109550327063,-0.010114881210029125,0.0657467320561409
599,149173738912,-0.0011971008498221636,-9.247604370117188,0.3998316824436188,-0.0010647244052961469,-0.012510511092841625,0.0646820068359375
600,149174999812,0.0454898327589035,-9.228450775146484,0.41299980878829956,-0.007453070487827063,-0.015172322280704975,0.0649481862783432
601,149176260712,0.0,-9.17817211151123,0.41299980878829956,0.0005323622026480734,-0.01357523538172245,0.0681423619389534
602,149177521612,0.017956512048840523,-9.196128845214844,0.4034229815006256,0.0063883461989462376,-0.01171196810901165,0.0724012553691864
603,149178782512,0.04668693244457245,-9.168595314025879,0.3770867586135864,0.010647243820130825,-0.0162370465695858,0.0708041712641716
604,149180043400,0.0071826050989329815,-9.162610054016113,0.37828385829925537,0.008517795242369175,-0.014373779296875,0.0705379918217659
605,149181304312,-0.004788403399288654,-9.174580574035645,0.4920084476470947,0.010913425125181675,-0.0204959437251091,0.0705379918217659
606,149182565175,0.011971008963882923,-9.11113452911377,0.4345476031303406,0.012510511092841625,-0.0162370465695858,0.0705379918217659
607,149183826100,0.031124621629714966,-9.151836395263672,0.456095427274704,0.015438503585755825,-0.015438503585755825,0.0692070871591568
608,149185086975,0.010773907415568829,-9.123106002807617,0.43095630407333374,0.015438503585755825,-0.0204959437251091,0.0684085413813591
609,149186347887,0.038307227194309235,-9.127894401550293,0.4704606235027313,0.01836649514734745,-0.023956298828125,0.0676099956035614
610,149187608800,0.07302315533161163,-9.132682800292969,0.45489832758903503,0.02422248013317585,-0.0220930315554142,0.0694732666015625
611,149188869675,0.043095629662275314,-9.096769332885742,0.4297592043876648,0.0252872034907341,-0.02422248013317585,0.071336530148983
612,149190130575,0.06584054976701736,-9.115922927856445,0.43933600187301636,0.0306108258664608,-0.0247548408806324,0.0705379918217659
613,149191391475,0.0933738648891449,-9.154230117797852,0.4692635238170624,0.0292799212038517,-0.02129448764026165,0.0689409002661705
614,149192652362,0.09217676520347595,-9.11113452911377,0.47644615173339844,0.0295461006462574,-0.02182685025036335,0.071336530148983
615,149193913287,0.06703764945268631,-9.120711326599121,0.42616790533065796,0.0316755510866642,-0.033272635191679,0.0721350759267807
616,149195174175,0.10295067727565765,-9.124302864074707,0.44771572947502136,0.0356682650744915,-0.0348697230219841,0.0678761824965477
617,149196435062,0.09696517139673233,-9.130288124084473,0.4620809257030487,0.0399271659553051,-0.0396609827876091,0.0726674422621727
618,149197695950,0.10055647045373917,-9.186552047729492,0.4537012279033661,0.0407257080078125,-0.0391286201775074,0.071336530148983
619,149198956862,0.11971008777618408,-9.196128845214844,0.43335050344467163,0.0439198799431324,-0.0385962575674057,0.0710703507065773
620,149200217750,0.11013327538967133,-9.184157371520996,0.43933600187301636,0.0468478724360466,-0.0460493303835392,0.0750630721449852
621,149201478662,0.08619125932455063,-9.186552047729492,0.43694180250167847,0.0487111397087574,-0.0468478724360466,0.0753292515873909
622,149202739537,0.11372458189725876,-9.1446533203125,0.42377370595932007,0.0543009415268898,-0.0409918874502182,0.0724012553691864
623,149204000450,0.13407529890537262,-9.222464561462402,0.45250412821769714,0.0545671246945858,-0.0460493303835392,0.0747968852519989
624,149205261337,0.0933738648891449,-9.210494041442871,0.4273650050163269,0.0582936592400074,-0.0505744069814682,0.0750630721449852
625,149206522225,0.10175357013940811,-9.26795482635498,0.4297592043876648,0.0636172816157341,-0.0516391322016716,0.0739983469247818
626,149207783125,0.043095629662275314,-9.261969566345215,0.4620809257030487,0.0625525563955307,-0.0532362200319767,0.0753292515873909
627,149209044037,0.06464345008134842,-9.294291496276855,0.44532153010368347,0.0652143657207489,-0.0519053116440773,0.0705379918217659
628,149210304912,0.06464345008134842,-9.277531623840332,0.4225766062736511,0.0673438161611557,-0.0574951171875,0.0731998011469841
629,149211565800,0.07422025501728058,-9.307458877563477,0.43933600187301636,0.0606892891228199,-0.0574951171875,0.0700056254863739
630,149212826712,0.04908113554120064,-9.338583946228027,0.44532153010368347,0.0681423619389534,-0.0625525563955307,0.0758616104722023
631,149214087625,0.04788403585553169,-9.38167953491211,0.4345476031303406,0.0729336217045784,-0.0724012553691864,0.0793219655752182
632,149215348512,0.019153613597154617,-9.368511199951172,0.45489832758903503,0.0724012553691864,-0.0660129114985466,0.0747968852519989
633,149216609412,0.010773907415568829,-9.368511199951172,0.4213795065879822,0.076127789914608,-0.0668114572763443,0.0721350759267807
634,149217870300,-0.020350715145468712,-9.446322441101074,0.42616790533065796,0.0771925151348114,-0.0692070871591568,0.0755954310297966
635,149219131200,0.015562310814857483,-9.475052833557129,0.4704606235027313,0.0753292515873909,-0.0731998011469841,0.0790557861328125
636,149220392100,0.02513911761343479,-9.466673851013184,0.4644751250743866,0.0750630721449852,-0.0750630721449852,0.0795881450176239
637,149221653000,-0.03232172504067421,-9.485827445983887,0.4489128291606903,0.0745307058095932,-0.0771925151348114,0.0779910609126091
638,149222913912,-0.011971008963882923,-9.478644371032715,0.44532153010368347,0.0785234197974205,-0.0795881450176239,0.0779910609126091
639,149224174800,0.0059855044819414616,-9.477447509765625,0.5111620426177979,0.07666015625,-0.0795881450176239,0.0782572403550148
640,149225435675,0.011971008963882923,-9.536105155944824,0.4812345504760742,0.0758616104722023,-0.0841132253408432,0.0771925151348114
641,149226696575,-0.026336219161748886,-9.521739959716797,0.43335050344467163,0.0758616104722023,-0.0883721262216568,0.0790557861328125
642,149227957487,-0.0347159244120121,-9.501389503479004,0.47165775299072266,0.0758616104722023,-0.0875735804438591,0.0777248814702034
643,149229218387,-0.04788403585553169,-9.521739959716797,0.4489128291606903,0.0742645263671875,-0.0859764963388443,0.0822499617934227
644,149230479275,-0.035913024097681046,-9.510966300964355,0.5111620426177979,0.0774587020277977,-0.0928971990942955,0.0825161412358284
645,149231740162,-0.05267243832349777,-9.481039047241211,0.5303156971931458,0.0742645263671875,-0.0920986607670784,0.0822499617934227
646,149233001062,-0.020350715145468712,-9.516951560974121,0.5147533416748047,0.0731998011469841,-0.0942281037569046,0.0854441300034523
647,149234261975,0.0,-9.494207382202148,0.5327098965644836,0.0745307058095932,-0.0942281037569046,0.0825161412358284
648,149235522862,-0.03711012750864029,-9.475052833557129,0.4692635238170624,0.0729336217045784,-0.0966237336397171,0.0859764963388443
649,149236783762,-0.04668693244457245,-9.464279174804688,0.48961424827575684,0.0692070871591568,-0.100616455078125,0.0891706645488739
650,149238044662,-0.05267243832349777,-9.491812705993652,0.5123591423034668,0.0782572403550148,-0.1046091690659523,0.0870412141084671
651,149239305562,-0.06584054976701736,-9.475052833557129,0.4776432514190674,0.0734659805893898,-0.1046091690659523,0.08624267578125
652,149240566450,-0.03232172504067421,-9.442731857299805,0.44532153010368347,0.0724012553691864,-0.1075371652841568,0.0822499617934227
653,149241827337,-0.07422025501728058,-9.485827445983887,0.4884171485900879,0.0737321600317955,-0.1104651540517807,0.0854441300034523
654,149243088250,-0.1173158809542656,-9.430760383605957,0.44532153010368347,0.0721350759267807,-0.1086018830537796,0.0907677561044693
655,149244349125,-0.13168109953403473,-9.412803649902344,0.46327802538871765,0.0702718123793602,-0.109666608273983,0.0907677561044693
656,149245610025,-0.06823474913835526,-9.425971984863281,0.4776432514190674,0.071868896484375,-0.1128607839345932,0.0886383056640625
657,149246870925,-0.1173158809542656,-9.41639518737793,0.4572925269603729,0.0694732666015625,-0.1157887727022171,0.0889044851064682
658,149248131850,-0.08619125932455063,-9.394847869873047,0.4620809257030487,0.0684085413813591,-0.1107313334941864,0.0899692103266716
659,149249392737,-0.12090718746185303,-9.412803649902344,0.4728548526763916,0.0697394460439682,-0.1139255091547966,0.0920986607670784
660,149250653625,-0.11013327538967133,-9.418789863586426,0.43095630407333374,0.0692070871591568,-0.12457275390625,0.0878397598862648
661,149251914512,-0.15921440720558167,-9.35893440246582,0.48482584953308105,0.0646820068359375,-0.12457275390625,0.0944942906498909
662,149253175412,-0.1496376097202301,-9.368511199951172,0.42377370595932007,0.0676099956035614,-0.1203138530254364,0.0966237336397171
663,149254436300,-0.1388636976480484,-9.354146003723145,0.5219359993934631,0.0697394460439682,-0.1203138530254364,0.0955590158700943
664,149255697212,-0.11372458189725876,-9.384073257446289,0.4141969084739685,0.0721350759267807,-0.1277669221162796,0.0990193635225296
665,149256958112,-0.16759411990642548,-9.355342864990234,0.4118027091026306,0.0673438161611557,-0.1259036511182785,0.095292828977108
666,149258219000,-0.15682020783424377,-9.344569206237793,0.46088382601737976,0.0660129114985466,-0.1277669221162796,0.0942281037569046
667,149259479912,-0.14245499670505524,-9.369708061218262,0.4728548526763916,0.0668114572763443,-0.128299281001091,0.0984870046377182
668,149260740800,-0.15801730751991272,-9.337387084960938,0.4189853072166443,0.0684085413813591,-0.1280331015586853,0.100616455078125
669,149262001700,-0.13287819921970367,-9.32541561126709,0.45010992884635925,0.0694732666015625,-0.1272345632314682,0.0995517298579216
670,149263262600,-0.1604115217924118,-9.32302188873291,0.3974374830722809,0.0700056254863739,-0.1314934641122818,0.1022135391831398
671,149264523500,-0.15083470940589905,-9.337387084960938,0.45489832758903503,0.0694732666015625,-0.1341552734375,0.1032782644033432
672,149265784400,-0.15801730751991272,-9.364919662475586,0.37229835987091064,0.0673438161611557,-0.1344214528799057,0.1046091690659523
673,149267045300,-0.20709845423698425,-9.311050415039062,0.3770867586135864,0.0636172816157341,-0.1346876323223114,0.1067386195063591
674,149268306187,-0.1711854189634323,-9.350554466247559,0.34596213698387146,0.0638834610581398,-0.1333567351102829,0.1080695241689682
675,149269567075,-0.15682020783424377,-9.346963882446289,0.35913026332855225,0.06707763671875,-0.1381479948759079,0.1051415354013443
676,149270827962,-0.1496376097202301,-9.333795547485352,0.4441244304180145,0.0676099956035614,-0.1392127126455307,0.1070047989487648
677,149272088875,-0.15682020783424377,-9.317035675048828,0.4513070285320282,0.0649481862783432,-0.1370832622051239,0.1107313334941864
678,149273349787,-0.15921440720558167,-9.339780807495117,0.38067808747291565,0.06707763671875,-0.1418745219707489,0.1109975129365921
679,149274610662,-0.1711854189634323,-9.369708061218262,0.3711012601852417,0.0686747208237648,-0.1416083425283432,0.1112636998295784
680,149275871562,-0.17477671802043915,-9.35773754119873,0.40222588181495667,0.0678761824965477,-0.1424068808555603,0.1120622381567955
681,149277132450,-0.2585738003253937,-9.344569206237793,0.4297592043876648,0.0638834610581398,-0.147464320063591,0.1109975129365921
682,149278393362,-0.2406172752380371,-9.3828763961792,0.363918662071228,0.0652143657207489,-0.1445363312959671,0.1112636998295784
683,149279654262,-0.15442600846290588,-9.373299598693848,0.4189853072166443,0.0625525563955307,-0.1456010639667511,0.1109975129365921
684,149280915137,-0.17717093229293823,-9.409213066101074,0.3878606855869293,0.0593583844602108,-0.1479966938495636,0.1094004288315773
685,149282176062,-0.16400282084941864,-9.397241592407227,0.33758243918418884,0.0636172816157341,-0.1498599499464035,0.1141916885972023
686,149283436950,-0.1843535304069519,-9.409213066101074,0.3770867586135864,0.062020193785429,-0.1495937705039978,0.1184505894780159
687,149284697850,-0.16160862147808075,-9.391256332397461,0.3770867586135864,0.0580274797976017,-0.1432054340839386,0.1195153146982193
688,149285958750,-0.15322890877723694,-9.372102737426758,0.3387795388698578,0.0593583844602108,-0.1525217741727829,0.114990234375
689,149287219650,-0.1628057211637497,-9.385271072387695,0.3603273630142212,0.0612216517329216,-0.1549174040555954,0.1184505894780159
690,149288480537,-0.13168109953403473,-9.387664794921875,0.363918662071228,0.0532362200319767,-0.1469319611787796,0.1219109445810318
691,149289741437,-0.13766659796237946,-9.352949142456055,0.35434186458587646,0.0543009415268898,-0.1450686901807785,0.1216447576880455
692,149291002325,-0.12449848651885986,-9.388861656188965,0.3519476652145386,0.0577612966299057,-0.1562483012676239,0.1232418492436409
693,149292263225,-0.13168109953403473,-9.394847869873047,0.33758243918418884,0.0537685826420784,-0.1543850302696228,0.1256374716758728
694,149293524125,-0.12928690016269684,-9.425971984863281,0.31962594389915466,0.0535023994743824,-0.1535864919424057,0.1237742081284523
695,149294785025,-0.0802057608962059,-9.41759204864502,0.30885201692581177,0.0561642125248909,-0.1597086638212204,0.1288316547870636
696,149296045925,-0.12928690016269684,-9.443928718566895,0.3363853394985199,0.0577612966299057,-0.1626366525888443,0.1325581818819046
697,149297306812,-0.11851298809051514,-9.431957244873047,0.34356793761253357,0.0574951171875,-0.158111572265625,0.1309611052274704
698,149298567725,-0.1364694982767105,-9.453505516052246,0.28730419278144836,0.0556318499147892,-0.1621042937040329,0.1280331015586853
699,149299828612,-0.12210428714752197,-9.45111083984375,0.3076549172401428,0.0596245639026165,-0.1644999235868454,0.1288316547870636
700,149301089500,-0.08379705995321274,-9.460687637329102,0.3076549172401428,0.0537685826420784,-0.1637013703584671,0.1306949108839035
701,149302350400,-0.07302315533161163,-9.4822359085083,0.2777273952960968,0.0566965714097023,-0.1674279123544693,0.1346876323223114
702,149303611275,-0.1256955862045288,-9.495404243469238,0.30526071786880493,0.0590922012925148,-0.1671617329120636,0.1368170827627182
703,149304872187,-0.12928690016269684,-9.479841232299805,0.35673606395721436,0.0543009415268898,-0.1698235422372818,0.1338890939950943
704,149306133087,-0.12210428714752197,-9.477447509765625,0.3579331636428833,0.0543009415268898,-0.1722191721200943,0.1386803537607193
705,149307393975,-0.13407529890537262,-9.501389503479004,0.3627215623855591,0.052703857421875,-0.1698235422372818,0.1373494416475296
706,149308654875,-0.12090718746185303,-9.520543098449707,0.3734954595565796,0.0561642125248909,-0.1716867983341217,0.1362847238779068
707,149309915787,-0.15083470940589905,-9.564835548400879,0.3663128614425659,0.0593583844602108,-0.171420618891716,0.137881800532341
708,149311176687,-0.1604115217924118,-9.552865028381348,0.38905778527259827,0.0585598424077034,-0.1746148020029068,0.1424068808555603
709,149312437575,-0.1496376097202301,-9.544485092163086,0.3519476652145386,0.0593583844602108,-0.1791398823261261,0.1410759836435318
710,149313698475,-0.16160862147808075,-9.53849983215332,0.4273650050163269,0.0561642125248909,-0.1780751496553421,0.1416083425283432
711,149314959362,-0.15083470940589905,-9.589975357055664,0.4381389021873474,0.0580274797976017,-0.177276611328125,0.1376156210899353
712,149316220262,-0.20111294090747833,-9.600749015808105,0.38905778527259827,0.0596245639026165,-0.1804707795381546,0.1402774304151535
713,149317481162,-0.19153614342212677,-9.627084732055664,0.3758896589279175,0.0566965714097023,-0.18206787109375,0.14373779296875
714,149318742050,-0.19393034279346466,-9.585186958312988,0.41778820753097534,0.0548333041369915,-0.185794398188591,0.1466657817363739
715,149320002962,-0.18794482946395874,-9.59596061706543,0.3842693865299225,0.0553656667470932,-0.1799384206533432,0.1424068808555603
716,149321263862,-0.25019407272338867,-9.59596061706543,0.3794809579849243,0.0521714948117733,-0.1826002299785614,0.1429392546415329
717,149322524762,-0.1843535304069519,-9.619902610778809,0.3758896589279175,0.0503082275390625,-0.1847296804189682,0.1418745219707489
718,149323785650,-0.2214636653661728,-9.583989143371582,0.363918662071228,0.0503082275390625,-0.1839311420917511,0.1453348845243454
719,149325046550,-0.21188685297966003,-9.57321548461914,0.39384618401527405,0.0519053116440773,-0.1815355122089386,0.1477305144071579
720,149326307437,-0.21308395266532898,-9.601945877075195,0.35075056552886963,0.0473802350461483,-0.1812693178653717,0.1416083425283432
721,149327568337,-0.24779987335205078,-9.557653427124023,0.35673606395721436,0.0471140518784523,-0.1839311420917511,0.14373779296875
722,149328829237,-0.25019407272338867,-9.542091369628906,0.4513070285320282,0.0495096817612648,-0.1826002299785614,0.1453348845243454
723,149330090125,-0.23702597618103027,-9.542091369628906,0.4321534037590027,0.0471140518784523,-0.1831325888633728,0.1440039724111557
724,149331351025,-0.181959331035614,-9.515754699707031,0.3842693865299225,0.0417904332280159,-0.1860605776309967,0.1487952321767807
725,149332611925,-0.18794482946395874,-9.519346237182617,0.4010287821292877,0.0441860631108284,-0.1839311420917511,0.1458672434091568
726,149333872812,-0.22744916379451752,-9.550470352172852,0.3866635859012604,0.0436537005007267,-0.18206787109375,0.1469319611787796
727,149335133712,-0.19871874153614044,-9.530119895935059,0.363918662071228,0.0457831472158432,-0.1852620393037796,0.1463996022939682
728,149336394612,-0.19393034279346466,-9.530119895935059,0.41060560941696167,0.0457831472158432,-0.1855282187461853,0.1458672434091568
729,149337655500,-0.21188685297966003,-9.530119895935059,0.3423708379268646,0.0460493303835392,-0.1847296804189682,0.1493275910615921
730,149338916400,-0.22625206410884857,-9.548076629638672,0.41299980878829956,0.0471140518784523,-0.1892547607421875,0.1493275910615921
731,149340177300,-0.23942017555236816,-9.48343276977539,0.4189853072166443,0.04791259765625,-0.1911180317401886,0.1498599499464035
732,149341438212,-0.17477671802043915,-9.495404243469238,0.4321534037590027,0.0447184219956398,-0.1908518373966217,0.1495937705039978
733,149342699112,-0.18315643072128296,-9.501389503479004,0.4165911078453064,0.0484449602663517,-0.1895209401845932,0.1490614116191864
734,149343959987,-0.22266076505184174,-9.53730297088623,0.4034229815006256,0.0492435023188591,-0.191650390625,0.1509246826171875
735,149345220887,-0.19632454216480255,-9.528923034667969,0.4381389021873474,0.0513729527592659,-0.1932474672794342,0.1559821218252182
736,149346481775,-0.16998831927776337,-9.494207382202148,0.3758896589279175,0.0471140518784523,-0.1961754709482193,0.1533203125
737,149347742675,-0.1735796183347702,-9.496601104736328,0.3447650372982025,0.0463155098259449,-0.1959092915058136,0.1530541330575943
738,149349003575,-0.1628057211637497,-9.513360977172852,0.3663128614425659,0.0487111397087574,-0.1977725476026535,0.1541188508272171
739,149350264475,-0.19033904373645782,-9.536105155944824,0.3902548849582672,0.0511067695915699,-0.1975063681602478,0.152255579829216
740,149351525375,-0.21667525172233582,-9.524134635925293,0.3974374830722809,0.052703857421875,-0.1975063681602478,0.1535864919424057
741,149352786275,-0.1759738326072693,-9.528923034667969,0.37229835987091064,0.0500420443713665,-0.20123291015625,0.1605072021484375
742,149354047175,-0.13766659796237946,-9.524134635925293,0.40462008118629456,0.0535023994743824,-0.2041608989238739,0.1565144807100296
743,149355308062,-0.13287819921970367,-9.548076629638672,0.3531447649002075,0.0540347620844841,-0.2081536203622818,0.1575792133808136
744,149356568950,-0.07661445438861847,-9.513360977172852,0.3172317147254944,0.0550994873046875,-0.2076212465763092,0.1594424694776535
745,149357829862,-0.17717093229293823,-9.554061889648438,0.38307228684425354,0.0497758649289608,-0.2065565288066864,0.157046839594841
746,149359090750,-0.15801730751991272,-9.5408935546875,0.3471592366695404,0.052703857421875,-0.2084197998046875,0.1565144807100296
747,149360351662,-0.12928690016269684,-9.599552154541016,0.333991140127182,0.0558980293571949,-0.2126787006855011,0.1599748432636261
748,149361612562,-0.1412578970193863,-9.607931137084961,0.3016694188117981,0.0582936592400074,-0.2086859792470932,0.1626366525888443
749,149362873450,-0.15083470940589905,-9.647436141967773,0.42377370595932007,0.0577612966299057,-0.2110816091299057,0.1634351909160614
750,149364134350,-0.13287819921970367,-9.637859344482422,0.39384618401527405,0.0606892891228199,-0.2182684987783432,0.1658308207988739
751,149365395237,-0.10654197633266449,-9.63067626953125,0.32680854201316833,0.0614878311753273,-0.2174699604511261,0.1621042937040329
752,149366656125,-0.12689268589019775,-9.62828254699707,0.38067808747291565,0.0604231096804142,-0.2190670371055603,0.1613057404756546
753,149367917037,-0.0933738648891449,-9.659406661987305,0.3627215623855591,0.0652143657207489,-0.2238582968711853,0.1660970002412796
754,149369177925,-0.08379705995321274,-9.646238327026367,0.3878606855869293,0.0630849227309227,-0.2273186594247818,0.1658308207988739
755,149370438850,-0.11133038252592087,-9.739612579345703,0.39145198464393616,0.0662790909409523,-0.2270524799823761,0.1607733815908432
756,149371699737,-0.10893617570400238,-9.733627319335938,0.35434186458587646,0.0684085413813591,-0.2318437397480011,0.161838099360466
757,149372960625,-0.0933738648891449,-9.749189376831055,0.4058171808719635,0.0638834610581398,-0.2342393696308136,0.1613057404756546
758,149374221537,-0.10055647045373917,-9.75278091430664,0.41778820753097534,0.0657467320561409,-0.2323760986328125,0.1660970002412796
759,149375482412,-0.0694318488240242,-9.762357711791992,0.4441244304180145,0.0676099956035614,-0.2379658967256546,0.166629359126091
760,149376743300,-0.08499415963888168,-9.768342971801758,0.4225766062736511,0.0692070871591568,-0.2438218891620636,0.1711544394493103
761,149378004212,-0.03711012750864029,-9.726444244384766,0.4465186297893524,0.0660129114985466,-0.2470160573720932,0.1708882600069046
762,149379265112,-0.013168109580874443,-9.68933391571045,0.4082113802433014,0.0668114572763443,-0.2456851452589035,0.1748809814453125
763,149380526000,-0.017956512048840523,-9.732430458068848,0.41539400815963745,0.06707763671875,-0.2478145956993103,0.177276611328125
764,149381786912,0.002394201699644327,-9.68813705444336,0.44173023104667664,0.0692070871591568,-0.251807302236557,0.1799384206533432
765,149383047787,-0.028730420395731926,-9.707290649414062,0.4728548526763916,0.0662790909409523,-0.2542029321193695,0.1804707795381546
766,149384308700,-0.0011971008498221636,-9.643844604492188,0.46088382601737976,0.0657467320561409,-0.2555338442325592,0.1826002299785614
767,149385569600,0.009576806798577309,-9.649829864501953,0.38905778527259827,0.071868896484375,-0.2579294741153717,0.1849958598613739
768,149386830487,0.0071826050989329815,-9.696516990661621,0.44173023104667664,0.0731998011469841,-0.2608574628829956,0.1903194785118103
769,149388091387,-0.028730420395731926,-9.62828254699707,0.45848962664604187,0.0702718123793602,-0.2640516459941864,0.1884562075138092
770,149389352287,-0.04668693244457245,-9.585186958312988,0.4513070285320282,0.0708041712641716,-0.2619222104549408,0.195376917719841
771,149390613187,-0.0059855044819414616,-9.603142738342285,0.46567222476005554,0.0726674422621727,-0.2640516459941864,0.1983049213886261
772,149391874087,0.013168109580874443,-9.585186958312988,0.48722004890441895,0.071336530148983,-0.2680443525314331,0.1972401887178421
773,149393134975,-0.009576806798577309,-9.513360977172852,0.49320554733276367,0.0774587020277977,-0.2749650776386261,0.1977725476026535
774,149394395875,-0.04788403585553169,-9.508572578430176,0.52552729845047,0.0801205113530159,-0.2707061767578125,0.1956430971622467
775,149395656775,-0.02753331884741783,-9.512163162231445,0.5351040959358215,0.0771925151348114,-0.2746988832950592,0.1988372802734375
776,149396917687,-0.011971008963882923,-9.50617790222168,0.5027823448181152,0.0806528702378273,-0.2765621542930603,0.2009667307138443
777,149398178562,-0.033518824726343155,-9.500192642211914,0.5626373887062073,0.0846455842256546,-0.2792239785194397,0.2033623605966568
778,149399439475,-0.07781155407428741,-9.497797966003418,0.5315127968788147,0.0886383056640625,-0.27789306640625,0.2036285400390625
779,149400700350,-0.08379705995321274,-9.44991397857666,0.5614402890205383,0.0926310196518898,-0.2789577841758728,0.2054918110370636
780,149401961262,-0.09696517139673233,-9.445125579833984,0.5710170865058899,0.0875735804438591,-0.2842814028263092,0.2044270783662796
781,149403222150,-0.090979665517807,-9.437943458557129,0.5925649404525757,0.0918324738740921,-0.2882741391658783,0.2057579904794693
782,149404483050,-0.06823474913835526,-9.409213066101074,0.5758054852485657,0.0955590158700943,-0.2850799560546875,0.2102830708026886
783,149405743937,-0.10893617570400238,-9.3828763961792,0.5841852426528931,0.1035444438457489,-0.2866770327091217,0.2094845175743103
784,149407004850,-0.1173158809542656,-9.390059471130371,0.6224924325942993,0.0984870046377182,-0.2866770327091217,0.209750697016716
785,149408265725,-0.11611878126859665,-9.376891136169434,0.5901707410812378,0.0992855504155159,-0.2877417504787445,0.2065565288066864
786,149409526637,-0.1149216815829277,-9.36013126373291,0.547075092792511,0.1080695241689682,-0.2917344868183136,0.2121463268995285
787,149410787525,-0.09696517139673233,-9.379284858703613,0.5662286877632141,0.1046091690659523,-0.292266845703125,0.2092183381319046
788,149412048437,-0.1496376097202301,-9.332598686218262,0.6165069341659546,0.1088680699467659,-0.2917344868183136,0.2052256166934967
789,149413309325,-0.11252748221158981,-9.337387084960938,0.6392518877983093,0.1165873184800148,-0.2898712158203125,0.2078874409198761
790,149414570237,-0.10773907601833344,-9.38167953491211,0.606930136680603,0.1117960587143898,-0.2904035747051239,0.2044270783662796
791,149415831125,-0.11851298809051514,-9.363722801208496,0.6667851805686951,0.1155225932598114,-0.2925330102443695,0.2089521586894989
792,149417092012,-0.026336219161748886,-9.428366661071777,0.5973533391952515,0.124040387570858,-0.2869432270526886,0.2094845175743103
793,149418352912,-0.009576806798577309,-9.418789863586426,0.6189011335372925,0.12457275390625,-0.2890726625919342,0.2078874409198761
794,149419613812,0.02992752194404602,-9.441534042358398,0.5889736413955688,0.1216447576880455,-0.2965257465839386,0.206024169921875
795,149420874712,0.10295067727565765,-9.526528358459473,0.5590460896492004,0.124040387570858,-0.29705810546875,0.2052256166934967
796,149422135637,0.08259996026754379,-9.548076629638672,0.5841852426528931,0.1296301931142807,-0.2983890175819397,0.2094845175743103
797,149423396500,0.05386953800916672,-9.605537414550781,0.5315127968788147,0.1309611052274704,-0.2981228232383728,0.2044270783662796
798,149424657400,0.12928690016269684,-9.68933391571045,0.569819986820221,0.1320258229970932,-0.3002522885799408,0.2007005512714386
799,149425918300,0.16759411990642548,-9.733627319335938,0.608127236366272,0.1410759836435318,-0.3074391782283783,0.2033623605966568
800,149427179200,0.14245499670505524,-9.819818496704102,0.6404489874839783,0.142673060297966,-0.3095686137676239,0.2036285400390625
801,149428440100,0.10055647045373917,-9.908403396606445,0.5746083855628967,0.1479966938495636,-0.3146260678768158,0.2038947194814682
802,149429700987,0.14844051003456116,-9.979032516479492,0.5901707410812378,0.1514570415019989,-0.3220791220664978,0.2046932578086853
803,149430961887,0.15921440720558167,-10.064026832580566,0.5985504388809204,0.1517232209444046,-0.3242085874080658,0.2057579904794693
804,149432222775,0.1604115217924118,-10.17296314239502,0.6177040338516235,0.1535864919424057,-0.3226114809513092,0.2132110595703125
805,149433483687,0.14006079733371735,-10.308235168457031,0.6141127347946167,0.1573130339384079,-0.3266042172908783,0.2118801474571228
806,149434744587,0.09816227108240128,-10.435128211975098,0.646434485912323,0.1565144807100296,-0.3337910771369934,0.2116139680147171
807,149436005475,0.08259996026754379,-10.579977035522461,0.6260837316513062,0.1594424694776535,-0.338049978017807,0.214541956782341
808,149437266375,0.09696517139673233,-10.648212432861328,0.6584054827690125,0.1602410227060318,-0.3463016152381897,0.2169375866651535
809,149438527287,0.028730420395731926,-10.766725540161133,0.5805939435958862,0.1562483012676239,-0.3492296040058136,0.2185346782207489
810,149439788150,-0.023942017927765846,-10.924742698669434,0.5841852426528931,0.1559821218252182,-0.3529561161994934,0.2243906557559967
811,149441049062,-0.023942017927765846,-11.046846389770508,0.6200982332229614,0.1554497629404068,-0.3564164936542511,0.2294481098651886
812,149442309962,-0.040701430290937424,-11.12346076965332,0.6584054827690125,0.1530541330575943,-0.3609415590763092,0.2238582968711853
813,149443570875,-0.06224924325942993,-11.225214958190918,0.5949591398239136,0.1498599499464035,-0.3649342656135559,0.2358364462852478
814,149444831762,-0.10055647045373917,-11.362881660461426,0.6236895322799683,0.1445363312959671,-0.3691931664943695,0.2416924387216568
815,149446092650,-0.06344634294509888,-11.425130844116211,0.6655880808830261,0.1368170827627182,-0.3726535439491272,0.2528720498085022
816,149447353562,-0.05985504388809204,-11.462241172790527,0.6979097723960876,0.129364013671875,-0.376380056142807,0.2616560161113739
817,149448614450,-0.05386953800916672,-11.621455192565918,0.6943184733390808,0.1272345632314682,-0.3814375102519989,0.2739003598690033
818,149449875337,-0.04788403585553169,-11.63222885131836,0.729034423828125,0.1200476735830307,-0.3809051513671875,0.2845475971698761
819,149451136250,-0.04189852997660637,-11.702857971191406,0.6955155730247498,0.1080695241689682,-0.3830345869064331,0.2943962812423706
820,149452397137,-0.04668693244457245,-11.701661109924316,0.6931213736534119,0.1019473597407341,-0.3870273232460022,0.2989213764667511
821,149453658037,-0.03711012750864029,-11.682507514953613,0.7254431247711182,0.0936957448720932,-0.388092041015625,0.3151584267616272
822,149454918937,-0.011971008963882923,-11.73278522491455,0.7984662652015686,0.0817175954580307,-0.388092041015625,0.3268703818321228
823,149456179825,0.0035913025494664907,-11.66694450378418,0.829590916633606,0.071336530148983,-0.3920847475528717,0.3359205424785614
824,149457440725,0.014365210197865963,-11.677719116210938,0.8415619134902954,0.0668114572763443,-0.3942142128944397,0.3540208637714386
825,149458701637,0.02513911761343479,-11.620258331298828,0.8140285611152649,0.0519053116440773,-0.395545095205307,0.3601430058479309
826,149459962525,0.04189852997660637,-11.54124927520752,0.872686505317688,0.0417904332280159,-0.3934156596660614,0.3670637309551239
827,149461223425,0.07062894850969315,-11.474211692810059,0.8834604620933533,0.0359344482421875,-0.3931494653224945,0.3822360634803772
828,149462484300,0.05027823522686958,-11.437101364135742,0.9445126056671143,0.023956298828125,-0.395545095205307,0.3934156596660614
829,149463745225,0.09457096457481384,-11.39520263671875,0.9026140570640564,0.0181003138422966,-0.4032643437385559,0.4016672670841217
830,149465006112,0.13766659796237946,-11.292252540588379,0.8954314589500427,0.0114457868039608,-0.400336354970932,0.4125806987285614
831,149466267000,0.1256955862045288,-11.239580154418945,0.9133879542350769,-0.0021294488105922937,-0.3966098427772522,0.4171057641506195
832,149467527912,0.13287819921970367,-11.18092155456543,0.9409212470054626,-0.007453070487827063,-0.3987392783164978,0.4229617714881897
833,149468788800,0.12210428714752197,-11.107898712158203,0.8918401598930359,-0.010381062515079975,-0.3979407250881195,0.4349399209022522
834,149470049700,0.12928690016269684,-10.992977142333984,0.8930372595787048,-0.0167694091796875,-0.4014011025428772,0.4423929750919342
835,149471310587,0.09696517139673233,-10.969035148620605,0.8307880163192749,-0.01703559048473835,-0.4056599736213684,0.4469180703163147
836,149472571487,0.0802057608962059,-10.900800704956055,0.8212112188339233,-0.0234239362180233,-0.4075232446193695,0.4525078535079956
837,149473832375,0.0586579404771328,-10.843339920043945,0.8080430626869202,-0.02608574740588665,-0.4067247211933136,0.4565005898475647
838,149475093287,0.03711012750864029,-10.831368446350098,0.8463503122329712,-0.0330064557492733,-0.4064585268497467,0.4572991132736206
839,149476354175,0.08259996026754379,-10.779892921447754,0.8188169598579407,-0.0306108258664608,-0.4037967324256897,0.4562343955039978
840,149477615075,0.0694318488240242,-10.6925048828125,0.8152256608009338,-0.0322079136967659,-0.405127614736557,0.4628889262676239
841,149478875975,0.1041477769613266,-10.63624095916748,0.7972691655158997,-0.0319417305290699,-0.4083217978477478,0.4652845561504364
842,149480136875,0.0802057608962059,-10.698490142822266,0.7565677165985107,-0.0354020856320858,-0.409918874502182,0.4671478271484375
843,149481397762,0.06344634294509888,-10.649409294128418,0.7721300721168518,-0.0330064557492733,-0.4088541567325592,0.4684787392616272
844,149482658675,0.08140286058187485,-10.654197692871094,0.7481880187988281,-0.0311431884765625,-0.4080556035041809,0.4682125449180603
845,149483919562,0.090979665517807,-10.673351287841797,0.7733271718025208,-0.0316755510866642,-0.4104512333869934,0.4666154682636261
846,149485180462,0.10055647045373917,-10.681731224060059,0.8224083185195923,-0.0295461006462574,-0.4144439697265625,0.4671478271484375
847,149486441362,0.07182604819536209,-10.708066940307617,0.8080430626869202,-0.02369011752307415,-0.4136454164981842,0.4660831093788147
848,149487702250,0.10055647045373917,-10.758345603942871,0.8164227604866028,-0.0244886614382267,-0.4160410463809967,0.4684787392616272
849,149488963162,0.10654197633266449,-10.773907661437988,0.8056488633155823,-0.0210283063352108,-0.4181705117225647,0.4650183618068695
850,149490224050,0.13168109953403473,-10.802638053894043,0.8212112188339233,-0.012510511092841625,-0.414710134267807,0.4660831093788147
851,149491484962,0.15562310814857483,-10.864887237548828,0.8080430626869202,-0.007985432632267475,-0.4157748818397522,0.4682125449180603
852,149492745850,0.15921440720558167,-10.916362762451172,0.8942343592643738,-0.014373779296875,-0.4152424931526184,0.4607594609260559
853,149494006750,0.13766659796237946,-10.90678596496582,0.8750807046890259,-0.01410759799182415,-0.419501394033432,0.4607594609260559
854,149495267637,0.16998831927776337,-11.01931381225586,0.9588778018951416,-0.015172322280704975,-0.4218970239162445,0.4554358422756195
855,149496528550,0.2106897532939911,-11.027692794799805,0.9600749015808105,-0.010114881210029125,-0.4208323061466217,0.4580976665019989
856,149497789425,0.21667525172233582,-11.057621002197266,0.9349357485771179,-0.0029279920272529125,-0.4202999472618103,0.4586300253868103
857,149499050325,0.2214636653661728,-11.060014724731445,0.9816226959228516,-0.003460354171693325,-0.4218970239162445,0.455169677734375
858,149500311225,0.23104046285152435,-11.107898712158203,0.9612720012664795,0.0,-0.4237602949142456,0.4527740478515625
859,149501572125,0.22385786473751068,-11.12226390838623,0.9959878921508789,-0.0021294488105922937,-0.4272206425666809,0.4471842348575592
860,149502833025,0.272938996553421,-11.191696166992188,0.9720458984375,0.0029279920272529125,-0.4256235659122467,0.4437238872051239
861,149504093937,0.26815059781074524,-11.184513092041016,0.9959878921508789,0.007985432632267475,-0.4258897602558136,0.4349399209022522
862,149505354812,0.26815059781074524,-11.182119369506836,1.0366894006729126,0.00692070834338665,-0.4298824667930603,0.4402635395526886
863,149506615700,0.2992752194404602,-11.188104629516602,1.01753568649292,0.0066545275039970875,-0.4250912070274353,0.4405297040939331
864,149507876612,0.31842881441116333,-11.225214958190918,1.1001356840133667,0.01357523538172245,-0.4245588481426239,0.4357384443283081
865,149509137487,0.35913026332855225,-11.224018096923828,1.1001356840133667,0.01756795309484005,-0.4298824667930603,0.4314795434474945
866,149510398412,0.3495534360408783,-11.250353813171387,1.0618284940719604,0.01756795309484005,-0.4314795434474945,0.4282853901386261
867,149511659312,0.2825157940387726,-11.255142211914062,1.0845733880996704,0.0204959437251091,-0.4293501079082489,0.4274868369102478
868,149512920187,0.3100491166114807,-11.243171691894531,1.071405291557312,0.02794901467859745,-0.4341413676738739,0.4213646650314331
869,149514181087,0.33758243918418884,-11.201272964477539,1.0989385843276978,0.03034464456140995,-0.43121337890625,0.4155086874961853
870,149515441987,0.34596213698387146,-11.194089889526367,1.0618284940719604,0.038330078125,-0.4296162724494934,0.4205661416053772
871,149516702900,0.3663128614425659,-11.218031883239746,1.072602391242981,0.0377977155148983,-0.4296162724494934,0.4149763286113739
872,149517963787,0.3974374830722809,-11.203666687011719,1.070208191871643,0.0401933453977108,-0.4320119023323059,0.4045952558517456
873,149519224687,0.41299980878829956,-11.166556358337402,1.1336544752120972,0.0455169677734375,-0.4309471845626831,0.4014011025428772
874,149520485587,0.37229835987091064,-11.190499305725098,1.1192892789840698,0.0495096817612648,-0.4304148256778717,0.4014011025428772
875,149521746475,0.39863458275794983,-11.1102933883667,1.1300631761550903,0.0505744069814682,-0.4320119023323059,0.3915523886680603
876,149523007375,0.4273650050163269,-11.067197799682617,1.1300631761550903,0.0564303919672966,-0.4306810200214386,0.3899553120136261
877,149524268262,0.46088382601737976,-11.05642318725586,1.1204863786697388,0.0558980293571949,-0.433875173330307,0.3838331401348114
878,149525529162,0.4273650050163269,-11.062409400939941,1.114500880241394,0.0577612966299057,-0.4362708032131195,0.3790418803691864
879,149526790075,0.41539400815963745,-11.016919136047363,1.0761936902999878,0.0633511021733284,-0.4328104555606842,0.378509521484375
880,149528050962,0.43095630407333374,-10.971429824829102,1.1037269830703735,0.0737321600317955,-0.4352060854434967,0.3713226318359375
